time,seconds_elapsed,z,y,x
1763205797002440400,0.1184404296875,0.4747200012207031,0.11267495155334473,0.015607774257659912
1763205797018370600,0.13437060546875,0.11539363861083984,0.08770895004272461,-0.06679672002792358
1763205797034331000,0.150330810546875,0.02582550048828125,0.016237735748291016,-0.08571022748947144
1763205797050291200,0.166291259765625,0.24151611328125,0.006890773773193359,0.05419883131980896
1763205797066221300,0.18222119140625,0.6997833251953125,-0.020949363708496094,0.0904417335987091
1763205797082181600,0.198181640625,0.5524692535400391,-0.0724639892578125,0.039981842041015625
1763205797098111500,0.214111572265625,0.08930778503417969,-0.018974781036376953,-0.1326383650302887
1763205797114072000,0.230072021484375,-0.27103137969970703,0.03282880783081055,0.03939998149871826
1763205797130002000,0.246001953125,-0.48034095764160156,0.22464370727539062,0.14206689596176147
1763205797145962200,0.261962158203125,-0.14428138732910156,0.20342063903808594,0.42812269926071167
1763205797161892000,0.27789208984375,0.05786705017089844,0.0774388313293457,0.46413272619247437
1763205797177852700,0.293852783203125,-0.299591064453125,0.09083318710327148,0.404613733291626
1763205797193782500,0.309782470703125,-0.3330192565917969,0.16283345222473145,0.18029570579528809
1763205797209742800,0.325742919921875,0.2551126480102539,0.008203506469726562,0.08780819177627563
1763205797225673000,0.3416728515625,0.7469024658203125,-0.1085062026977539,0.10198211669921875
1763205797241633300,0.35763330078125,0.5633955001831055,0.07676196098327637,0.21795320510864258
1763205797257563100,0.373563232421875,-0.1029653549194336,0.27283453941345215,0.1716868281364441
1763205797273523700,0.389523681640625,-0.33697509765625,0.26523327827453613,0.028796672821044922
1763205797289453600,0.40545361328125,0.10851478576660156,0.09845256805419922,-0.09356051683425903
1763205797305414000,0.421413818359375,0.12439250946044922,0.0761110782623291,-0.030477583408355713
1763205797321344000,0.437343994140625,0.009102821350097656,0.27129292488098145,-0.05115753412246704
1763205797337304300,0.45330419921875,-0.234649658203125,0.22029972076416016,-0.05393940210342407
1763205797353234200,0.469234130859375,-0.4788675308227539,0.1436457633972168,-0.27684903144836426
1763205797369164000,0.4851640625,-0.44940948486328125,0.17925786972045898,-0.4848383963108063
1763205797385124600,0.50112451171875,-0.4780569076538086,0.268749475479126,-0.38946664333343506
1763205797401054500,0.517054443359375,-0.41362953186035156,0.4136927127838135,-0.11720651388168335
1763205797417014800,0.533014892578125,0.0929861068725586,0.31729769706726074,-0.23762810230255127
1763205797432945000,0.54894482421875,0.6257009506225586,0.06795668601989746,-0.4198671579360962
1763205797448905200,0.5649052734375,0.510106086730957,0.09080767631530762,-0.44557589292526245
1763205797464835000,0.5808349609375,0.15505504608154297,0.21896743774414062,-0.42222675681114197
1763205797480795600,0.596795654296875,0.12413501739501953,0.23188185691833496,-0.2964271903038025
1763205797496725500,0.6127255859375,0.32175445556640625,0.14306187629699707,-0.2707035541534424
1763205797512685800,0.628685791015625,0.3020343780517578,0.10504364967346191,-0.3833271265029907
1763205797528615700,0.64461572265625,0.47582244873046875,0.2624375820159912,-0.260492205619812
1763205797544545800,0.6605458984375,0.8489646911621094,0.25197815895080566,-0.15600532293319702
1763205797560506000,0.676506103515625,0.8880958557128906,0.21975302696228027,-0.15346816182136536
1763205797576466400,0.692466552734375,0.6454610824584961,0.36017847061157227,-0.2594798803329468
1763205797592427000,0.708427001953125,0.24977397918701172,0.5559718608856201,-0.05795764923095703
1763205797608356900,0.72435693359375,0.03611946105957031,0.5378680229187012,-0.048963338136672974
1763205797624317200,0.740317138671875,0.3655862808227539,0.4540278911590576,-0.21893972158432007
1763205797640277800,0.75627783203125,0.48577117919921875,0.42193174362182617,-0.13952398300170898
1763205797656207600,0.77220751953125,0.2756328582763672,0.4558866024017334,-0.022929653525352478
1763205797672168200,0.788168212890625,0.32443714141845703,0.4609355926513672,0.1130891740322113
1763205797688128500,0.80412841796875,0.6607456207275391,0.18306756019592285,0.06206253916025162
1763205797704058400,0.820058349609375,0.7711191177368164,-0.1837010383605957,-0.2026863992214203
1763205797720019000,0.83601904296875,0.5557489395141602,-0.2799406051635742,-0.22745490074157715
1763205797735948800,0.85194873046875,0.5336418151855469,-0.26438069343566895,-0.010049138218164444
1763205797751939600,0.867939697265625,0.5904712677001953,-0.38927793502807617,0.0824246034026146
1763205797767869700,0.88386962890625,0.8181066513061523,-0.6248692274093628,-0.10821355879306793
1763205797783830000,0.899830078125,1.0959224700927734,-0.8016176223754883,-0.308926522731781
1763205797799760000,0.915759765625,0.8241348266601562,-0.714692234992981,-0.34793615341186523
1763205797815720400,0.931720458984375,0.37134742736816406,-0.6699084043502808,-0.39871007204055786
1763205797831650300,0.947650390625,0.1405019760131836,-0.643939733505249,-0.5312861204147339
1763205797847580200,0.963580078125,-0.2756624221801758,-0.5298771858215332,-0.6004640460014343
1763205797863540500,0.97954052734375,-0.5640678405761719,-0.47264623641967773,-0.7114388942718506
1763205797879470600,0.995470703125,-0.8054275512695312,-0.42217183113098145,-0.7357895374298096
1763205797895431000,1.011430908203125,-0.8214330673217773,-0.3993384838104248,-0.7458739876747131
1763205797911360800,1.02736083984375,-0.20489025115966797,-0.5496232509613037,-0.7128618359565735
1763205797927321300,1.0433212890625,0.7257957458496094,-0.8842085599899292,-0.5915432572364807
1763205797943251200,1.059251220703125,1.4543828964233398,-1.157456636428833,-0.6808890700340271
1763205797959211500,1.07521142578125,2.2170867919921875,-1.3097985982894897,-0.9460150003433228
1763205797975141400,1.091141357421875,2.476893424987793,-1.4869953393936157,-1.164676547050476
1763205797991102000,1.10710205078125,1.4714908599853516,-1.3920979499816895,-1.2543425559997559
1763205798007031800,1.12303173828125,0.2340831756591797,-1.0814857482910156,-1.4646605253219604
1763205798022992100,1.1389921875,-0.6535625457763672,-0.7671428918838501,-1.4012019634246826
1763205798038922200,1.154922119140625,-1.1117572784423828,-0.6096713542938232,-1.4744575023651123
1763205798054882600,1.170882568359375,-1.4621405601501465,-0.659043550491333,-1.6613746881484985
1763205798070812400,1.1868125,-1.514214038848877,-0.7260396480560303,-1.5882151126861572
1763205798086773000,1.20277294921875,-1.3833179473876953,-0.45467472076416016,-1.104166030883789
1763205798102702800,1.218702880859375,-0.5502729415893555,-0.4380981922149658,-0.7381252646446228
1763205798118663200,1.2346630859375,0.048923492431640625,-0.34230566024780273,-0.4014503061771393
1763205798134593300,1.25059326171875,0.9502191543579102,-0.42264795303344727,-0.43665438890457153
1763205798150553600,1.2665537109375,1.1960868835449219,-0.6669528484344482,-0.5493047833442688
1763205798166514000,1.282513916015625,1.1675186157226562,-0.838458776473999,-1.0090006589889526
1763205798182444000,1.298444091796875,0.8119487762451172,-0.46714115142822266,-1.047828197479248
1763205798198404400,1.314404296875,0.2559375762939453,-0.3964369297027588,-0.9528633952140808
1763205798214364700,1.33036474609375,-0.6154289245605469,-0.18384408950805664,-0.8063322305679321
1763205798230294800,1.346294677734375,-0.8290386199951172,1.1550910472869873,0.3619655668735504
1763205798246255000,1.362255126953125,0.05032062530517578,-0.4000205993652344,-0.8994544744491577
1763205798262215400,1.37821533203125,-1.0191564559936523,0.4788949489593506,-0.912095844745636
1763205798278145500,1.3941455078125,-0.9130735397338867,0.2692081928253174,-1.015180230140686
1763205798294105900,1.41010595703125,-1.0613126754760742,0.6478798389434814,-0.5230017900466919
1763205798310035700,1.42603564453125,-0.3413677215576172,0.6752462387084961,-0.3734784722328186
1763205798325996300,1.441996337890625,0.06121063232421875,0.38271021842956543,-0.5426867008209229
1763205798341956600,1.45795654296875,0.18138980865478516,0.2780470848083496,-0.8641926050186157
1763205798357886500,1.473886474609375,0.41692352294921875,0.3059673309326172,-0.8792688846588135
1763205798373847000,1.489846923828125,0.45964717864990234,0.1763308048248291,-0.8352562189102173
1763205798389807400,1.505807373046875,0.24036884307861328,0.20476031303405762,-0.7686961889266968
1763205798405737200,1.5217373046875,-0.045009613037109375,0.40115976333618164,-0.6428089737892151
1763205798421697800,1.53769775390625,-0.14888763427734375,0.7145705223083496,-0.28196465969085693
1763205798437627600,1.553627685546875,-0.01600933074951172,0.6851484775543213,-0.09211075305938721
1763205798453588000,1.569587890625,0.24757862091064453,0.552131175994873,-0.25548791885375977
1763205798469517800,1.585517822265625,0.06057167053222656,0.3250081539154053,-0.3853175640106201
1763205798485478400,1.601478515625,-0.032912254333496094,0.21361708641052246,-0.4071478247642517
1763205798501408300,1.617408203125,0.08291149139404297,0.21353983879089355,-0.34773099422454834
1763205798517368800,1.633368896484375,0.47455501556396484,0.24494528770446777,-0.20729291439056396
1763205798533298700,1.649298583984375,0.6311454772949219,0.3252251148223877,0.023868799209594727
1763205798549259000,1.665259033203125,0.36438846588134766,0.47318601608276367,0.17764320969581604
1763205798565188900,1.68118896484375,0.1985616683959961,0.547029972076416,0.2398594319820404
1763205798581149400,1.6971494140625,0.34790611267089844,0.343794584274292,0.35197222232818604
1763205798597079300,1.713079345703125,0.7916154861450195,-0.019745349884033203,0.4327109456062317
1763205798613039600,1.72903955078125,1.0047597885131836,-0.21695876121520996,0.5043396949768066
1763205798628969700,1.7449697265625,1.014404296875,-0.37610626220703125,0.5224332809448242
1763205798644930000,1.760929931640625,1.1322135925292969,-0.3932828903198242,0.35618841648101807
1763205798660890400,1.776890380859375,1.4685583114624023,-0.6094419956207275,0.10839550197124481
1763205798676851000,1.792850830078125,1.6354341506958008,-0.8383769989013672,0.12337380647659302
1763205798692811300,1.808811279296875,1.7846975326538086,-1.0333441495895386,0.18820533156394958
1763205798708741000,1.8247412109375,2.2951269149780273,-1.2882930040359497,0.24931351840496063
1763205798724701700,1.84070166015625,2.676224708557129,-1.5397179126739502,0.4318850040435791
1763205798740631600,1.856631591796875,2.554043769836426,-1.6784685850143433,0.5939332246780396
1763205798756591900,1.872591796875,1.5988712310791016,-1.4597545862197876,0.7157197594642639
1763205798772522000,1.88852197265625,0.4456157684326172,-1.1355197429656982,0.8986212015151978
1763205798788482300,1.904482421875,-0.49146461486816406,-0.9546315670013428,1.191105842590332
1763205798804412200,1.920412109375,-1.2233524322509766,-0.7604072093963623,1.3680241107940674
1763205798820372700,1.936372802734375,-1.523557186126709,-0.8253061771392822,1.182720422744751
1763205798836302600,1.952302490234375,-1.3978347778320312,-0.9675159454345703,1.0463759899139404
1763205798852263000,1.968262939453125,-0.5571374893188477,-1.0603808164596558,1.0911235809326172
1763205798868192800,1.98419287109375,0.2654390335083008,-1.3370600938796997,0.8794105052947998
1763205798884153300,2.0001533203125,0.5332231521606445,-1.416349172592163,0.41764822602272034
1763205798900083200,2.016083251953125,0.3078041076660156,-1.3214421272277832,0.3369208574295044
1763205798916013000,2.032012939453125,-0.11959648132324219,-0.9552203416824341,0.5337274074554443
1763205798931973600,2.0479736328125,-0.8363351821899414,-0.41353869438171387,0.7696069478988647
1763205798947903500,2.063903564453125,-1.3177738189697266,-0.10095477104187012,0.8280056118965149
1763205798963863800,2.07986376953125,-1.617631435394287,-0.03703045845031738,0.6786730885505676
1763205798979794000,2.0957939453125,-1.4080333709716797,-0.0511016845703125,0.50899738073349
1763205798995754200,2.111754150390625,-1.0954246520996094,-0.207411527633667,0.36704787611961365
1763205799011714600,2.127714599609375,-0.7093734741210938,-0.26956844329833984,0.23205068707466125
1763205799027644700,2.143644775390625,-0.7366619110107422,-0.23953771591186523,0.2730132043361664
1763205799043605000,2.15960498046875,-0.9800710678100586,0.021729707717895508,0.4158014953136444
1763205799059534800,2.175534912109375,-0.44629669189453125,0.17607402801513672,0.7163844108581543
1763205799075495400,2.191495361328125,0.03975486755371094,0.23768877983093262,0.7490037679672241
1763205799091425300,2.20742529296875,0.038811683654785156,0.23266196250915527,0.6592869758605957
1763205799107385600,2.223385498046875,-0.11071968078613281,0.07410931587219238,0.3166052997112274
1763205799123315500,2.2393154296875,-0.041878700256347656,0.12000536918640137,0.165542870759964
1763205799139276000,2.255276123046875,-0.05509185791015625,0.3106527328491211,0.2692476809024811
1763205799155236400,2.271236328125,-0.37307262420654297,0.5093281269073486,0.34679338335990906
1763205799171197000,2.287197021484375,-0.45589447021484375,0.46877241134643555,0.14690658450126648
1763205799187157200,2.3031572265625,-0.155059814453125,0.5386931896209717,0.26760804653167725
1763205799203117600,2.31911767578125,0.196502685546875,0.6760685443878174,0.41846272349357605
1763205799219078100,2.335078125,0.7130107879638672,0.653839111328125,0.5647386908531189
1763205799235038500,2.35103857421875,0.9451885223388672,0.40447115898132324,0.4610138237476349
1763205799250968300,2.36696826171875,1.342599868774414,0.16279172897338867,0.18268096446990967
1763205799266929000,2.382928955078125,1.9413766860961914,-0.027916669845581055,0.20103847980499268
1763205799282920000,2.398919921875,2.0568981170654297,-0.016225337982177734,0.3174387812614441
1763205799298880300,2.41488037109375,2.064803123474121,0.11734986305236816,0.4804522395133972
1763205799314871300,2.430871337890625,1.9112157821655273,0.21763277053833008,0.5752198696136475
1763205799330892500,2.446892578125,1.5943593978881836,0.3784480094909668,0.3575991094112396
1763205799346883600,2.462883544921875,1.4335975646972656,0.44408154487609863,0.3065452575683594
1763205799362844000,2.478843994140625,1.9738874435424805,0.3963618278503418,0.43307390809059143
1763205799378804500,2.494804443359375,2.7783069610595703,-0.2301502227783203,0.3748137056827545
1763205799394795300,2.510795166015625,2.9667539596557617,-1.1706058979034424,-0.014757692813873291
1763205799410755800,2.526755859375,2.5887451171875,-1.7162644863128662,-0.7136509418487549
1763205799426716200,2.542716064453125,1.3242263793945312,-1.6660252809524536,-1.2200559377670288
1763205799442676700,2.5586767578125,-0.6685504913330078,-1.446146845817566,-1.3419815301895142
1763205799458667500,2.57466748046875,-2.2264251708984375,-1.0495963096618652,-1.6325464248657227
1763205799474658600,2.590658447265625,-2.718799591064453,-0.760183572769165,-1.8687931299209595
1763205799490619000,2.606618896484375,-2.0365943908691406,-0.7664361000061035,-1.6516401767730713
1763205799506610000,2.62260986328125,-0.9853668212890625,-0.9526751041412354,-1.1941564083099365
1763205799522570200,2.6385703125,-0.7328968048095703,-0.8953986167907715,-0.44731926918029785
1763205799538530800,2.65453076171875,-0.3698692321777344,-0.6699028015136719,0.31040865182876587
1763205799554491100,2.6704912109375,0.9851951599121094,-0.9080252647399902,0.4004419147968292
1763205799570451700,2.68645166015625,2.996884346008301,-1.310896635055542,0.4743201732635498
1763205799586412000,2.702412109375,3.6293811798095703,-1.7421834468841553,0.33436673879623413
1763205799602372400,2.718372314453125,2.7021312713623047,-1.8334022760391235,-0.11147713661193848
1763205799618363400,2.73436328125,1.0156402587890625,-1.6770398616790771,-0.43516606092453003
1763205799634354400,2.7503544921875,-0.34633445739746094,-1.0313705205917358,-0.23471742868423462
1763205799650284300,2.7662841796875,-0.9076166152954102,-0.540571928024292,0.19336020946502686
1763205799666214100,2.782214111328125,-1.7281246185302734,-0.30912208557128906,0.48115184903144836
1763205799682205200,2.798205078125,-2.5723676681518555,-0.28313350677490234,0.26638299226760864
1763205799698165500,2.81416552734375,-2.9287242889404297,-0.41843509674072266,-0.050435662269592285
1763205799714125800,2.830125732421875,-2.307569980621338,-0.5575783252716064,-0.44611167907714844
1763205799730086400,2.84608642578125,-1.2682886123657227,-0.5903427600860596,-0.4809725880622864
1763205799746046700,2.862046630859375,-0.6980361938476562,-0.38809752464294434,-0.1874668002128601
1763205799762007300,2.87800732421875,-0.6448154449462891,-0.09788131713867188,0.1519213318824768
1763205799777937200,2.893937255859375,-0.9921846389770508,0.09459328651428223,0.4279767572879791
1763205799793897500,2.9098974609375,-1.1074466705322266,0.15318679809570312,0.3671491742134094
1763205799809858000,2.925858154296875,-0.7707500457763672,0.0805354118347168,0.14402246475219727
1763205799825818400,2.941818359375,-0.41443824768066406,-0.037961721420288086,-0.05713933706283569
1763205799841779000,2.957779052734375,-0.3544597625732422,-0.05118083953857422,-0.24349766969680786
1763205799857739300,2.9737392578125,-0.1993274688720703,0.08792495727539062,-0.3121679127216339
1763205799873699600,2.989699462890625,0.2048816680908203,0.16346430778503418,-0.2648712992668152
1763205799889690600,3.005690673828125,0.2346477508544922,0.19416356086730957,-0.1603970229625702
1763205799905651000,3.02165087890625,0.06076812744140625,0.43592166900634766,0.05404007434844971
1763205799921611500,3.037611572265625,-0.18469905853271484,0.5455074310302734,0.10146179795265198
1763205799937571800,3.05357177734375,0.035050392150878906,0.423429012298584,-0.07176592946052551
1763205799953501700,3.069501708984375,0.8325309753417969,0.19327569007873535,-0.2981126606464386
1763205799969462300,3.085462158203125,1.3782567977905273,0.037604331970214844,-0.06369853019714355
1763205799985453000,3.101453125,1.7004623413085938,-0.0836024284362793,0.1110992357134819
1763205800001413600,3.11741357421875,1.8512773513793945,-0.10796570777893066,0.26325809955596924
1763205800017343500,3.133343505859375,2.114459991455078,-0.22584152221679688,0.6251348257064819
1763205800033303800,3.1493037109375,2.2517871856689453,-0.47171831130981445,0.942306637763977
1763205800049294800,3.165294921875,2.784475326538086,-0.8357357978820801,1.0574853420257568
1763205800065286000,3.181285888671875,3.4792098999023438,-1.3281264305114746,1.0191650390625
1763205800081215700,3.1972158203125,3.7196311950683594,-1.7459561824798584,0.7422581315040588
1763205800097176000,3.213176025390625,3.174532890319824,-2.1452741622924805,0.24139779806137085
1763205800113136600,3.22913671875,2.213862419128418,-2.028627872467041,0.11784586310386658
1763205800129066500,3.24506640625,1.1886711120605469,-1.6985948085784912,0.3401988446712494
1763205800145026800,3.26102685546875,0.10451412200927734,-1.4310030937194824,0.8243648409843445
1763205800160957000,3.27695703125,-0.5464057922363281,-1.3055038452148438,0.959479808807373
1763205800176917200,3.292917236328125,-0.7455244064331055,-1.3419705629348755,0.9592345952987671
1763205800192908300,3.308908203125,-0.4047107696533203,-1.2722411155700684,0.8590425252914429
1763205800208838100,3.324838134765625,0.009829521179199219,-1.0689374208450317,0.7605243921279907
1763205800224768000,3.34076806640625,-0.07975292205810547,-0.9355580806732178,0.608241617679596
1763205800240728300,3.356728271484375,-0.5240774154663086,-0.884514331817627,0.249033123254776
1763205800256658400,3.372658447265625,-0.8373079299926758,-0.8182207345962524,-0.009283434599637985
1763205800272618800,3.38861865234375,-1.0899114608764648,-0.6111831665039062,0.010313600301742554
1763205800288548600,3.404548583984375,-1.3640565872192383,-0.38625478744506836,0.1344287097454071
1763205800304509200,3.42050927734375,-1.6634039878845215,-0.2619812488555908,0.13987243175506592
1763205800320469500,3.436469482421875,-1.3687524795532227,-0.14748740196228027,0.04375037923455238
1763205800336429800,3.452429931640625,-0.7139434814453125,-0.11492037773132324,0.1279079020023346
1763205800352360000,3.46835986328125,-0.13025379180908203,0.013748884201049805,0.4344615340232849
1763205800368320300,3.4843203125,-0.13089942932128906,0.1164705753326416,0.5755239129066467
1763205800384250000,3.50025,-0.7348747253417969,0.1831204891204834,0.5860798358917236
1763205800400210700,3.516210693359375,-1.2571945190429688,0.218766450881958,0.49028128385543823
1763205800416140500,3.532140625,-1.3222160339355469,0.16262435913085938,0.36647146940231323
1763205800432100900,3.548100830078125,-0.5078506469726562,-0.08302092552185059,0.22661283612251282
1763205800448030700,3.56403076171875,0.05536937713623047,-0.2509324550628662,0.13190504908561707
1763205800463991300,3.5799912109375,0.7889242172241211,-0.24045920372009277,0.08038908243179321
1763205800479921200,3.595921142578125,1.1522321701049805,-0.22283458709716797,0.24204149842262268
1763205800495881700,3.6118818359375,0.4554939270019531,0.06179475784301758,0.451174259185791
1763205800511842000,3.627842041015625,-0.3273773193359375,0.38843703269958496,0.4131239056587219
1763205800527802400,3.64380224609375,-0.8044757843017578,0.5432772636413574,0.3242839574813843
1763205800543763000,3.659762939453125,-0.7382650375366211,0.579186201095581,0.20542266964912415
1763205800559723300,3.67572314453125,-0.007554054260253906,0.39071130752563477,0.12736189365386963
1763205800575714300,3.69171435546875,0.7524518966674805,0.21313977241516113,0.2781636714935303
1763205800591674600,3.707674560546875,1.3598508834838867,0.061336517333984375,0.21107399463653564
1763205800607635200,3.72363525390625,1.2751846313476562,0.11319327354431152,0.19276827573776245
1763205800623595500,3.739595458984375,0.7019472122192383,0.2791931629180908,0.3986292779445648
1763205800639555800,3.755555908203125,0.7953767776489258,0.4029667377471924,0.5185877680778503
1763205800655516400,3.771516357421875,1.4913530349731445,-0.02936410903930664,0.2938633859157562
1763205800671446300,3.7874462890625,2.355621337890625,-0.6557924747467041,-0.167190283536911
1763205800687406600,3.803406494140625,3.2256593704223633,-1.0458366870880127,-0.36289075016975403
1763205800703367200,3.8193671875,3.5461769104003906,-1.4791767597198486,-0.12707355618476868
1763205800719327500,3.835327392578125,3.9969911575317383,-1.8226549625396729,-0.1305888593196869
1763205800735257300,3.85125732421875,3.4500436782836914,-2.01145076751709,-0.42960676550865173
1763205800751218000,3.867218017578125,1.2742128372192383,-1.9538588523864746,-1.194187045097351
1763205800767209000,3.883208984375,-0.9430217742919922,-1.5844182968139648,-1.734224796295166
1763205800783138800,3.899138916015625,-2.36557674407959,-1.1131833791732788,-1.7073554992675781
1763205800799099100,3.91509912109375,-3.0088729858398438,-0.5325870513916016,-1.415334939956665
1763205800815029000,3.931029052734375,-2.6758651733398438,-0.3825266361236572,-1.1542646884918213
1763205800830989600,3.946989501953125,-1.9457612037658691,-0.46135473251342773,-0.933811604976654
1763205800846950000,3.962949951171875,-1.0790157318115234,-0.502694845199585,-0.613465428352356
1763205800862910500,3.978910400390625,-0.5260658264160156,-0.5314548015594482,-0.1195186972618103
1763205800878840300,3.99484033203125,0.39839744567871094,-0.7028231620788574,0.13306114077568054
1763205800894800600,4.010800537109375,2.315977096557617,-1.0364019870758057,-0.06011772155761719
1763205800910730500,4.02673046875,3.930753707885742,-1.6135586500167847,-0.25912395119667053
1763205800926691000,4.042691162109375,3.5307865142822266,-1.887916088104248,-0.5152917504310608
1763205800942651400,4.0586513671875,1.2690057754516602,-1.395330548286438,-0.6747100949287415
1763205800958581200,4.074581298828125,-0.886103630065918,-0.6501753330230713,-0.6580402255058289
1763205800974541800,4.090541748046875,-2.543858051300049,-0.04097127914428711,-0.5135521292686462
1763205800990471700,4.1064716796875,-3.157834529876709,0.3706033229827881,-0.32227104902267456
1763205801006432000,4.122431884765625,-3.096980571746826,0.4247429370880127,-0.18030226230621338
1763205801022362000,4.138362060546875,-2.7486376762390137,0.28374814987182617,-0.3373805284500122
1763205801038322400,4.154322509765625,-1.9131031036376953,0.10352969169616699,-0.5900930166244507
1763205801054252300,4.170252197265625,-0.8772048950195312,0.04485511779785156,-0.6204662322998047
1763205801070212900,4.186212890625,-0.031004905700683594,0.19090962409973145,-0.48372435569763184
1763205801086142700,4.202142822265625,0.502934455871582,0.27298450469970703,-0.2657482922077179
1763205801102103000,4.21810302734375,0.5901346206665039,0.22806859016418457,-0.025704771280288696
1763205801118033000,4.234032958984375,0.24834918975830078,0.21006155014038086,-0.1762027144432068
1763205801133993500,4.249993408203125,0.12800312042236328,0.008171319961547852,-0.7927309274673462
1763205801149923300,4.26592333984375,0.04944896697998047,0.020175695419311523,-0.8430626392364502
1763205801165883600,4.281883544921875,-0.14741230010986328,0.3524813652038574,-0.39562201499938965
1763205801181813800,4.297813720703125,-0.1720867156982422,0.6502368450164795,-0.024172604084014893
1763205801197774000,4.313774169921875,-0.25754833221435547,0.6541175842285156,0.005542337894439697
1763205801213704000,4.329703857421875,-0.44892024993896484,0.6416409015655518,-0.14273008704185486
1763205801229695000,4.345695068359375,-0.35779666900634766,0.6711652278900146,-0.30292752385139465
1763205801245624800,4.361624755859375,0.41129112243652344,0.42760300636291504,-0.42642050981521606
1763205801261585400,4.37758544921875,0.9793081283569336,0.3710825443267822,-0.27938053011894226
1763205801277545700,4.393545654296875,1.1528472900390625,0.3730607032775879,-0.09199279546737671
1763205801293536800,4.409536865234375,1.6632623672485352,0.20524954795837402,0.12492427974939346
1763205801309497000,4.4254970703125,2.313246726989746,0.04653429985046387,0.1519075334072113
1763205801325457400,4.44145751953125,2.7618017196655273,-0.08955693244934082,0.29427194595336914
1763205801341418000,4.45741796875,2.7357311248779297,-0.4483919143676758,0.2778809666633606
1763205801357378300,4.47337841796875,2.5934553146362305,-0.8215498924255371,0.01746666431427002
1763205801373339000,4.4893388671875,2.724193572998047,-1.2332768440246582,-0.13983505964279175
1763205801389299200,4.50529931640625,3.1660280227661133,-1.6116338968276978,-0.369457870721817
1763205801405290200,4.521290283203125,2.808198928833008,-1.7354743480682373,-0.406294584274292
1763205801421281000,4.537281005859375,1.9764738082885742,-1.623201608657837,-0.384657621383667
1763205801437272000,4.55327197265625,1.0477800369262695,-1.3884412050247192,0.03899846225976944
1763205801453263000,4.56926318359375,0.6853389739990234,-1.32787024974823,0.4554826021194458
1763205801469223400,4.585223388671875,0.5211362838745117,-1.3203115463256836,0.7482191920280457
1763205801485183700,4.601183837890625,0.48314952850341797,-1.3125255107879639,0.8185608386993408
1763205801501113900,4.61711376953125,0.3046398162841797,-1.2612380981445312,0.8210328221321106
1763205801517074200,4.63307421875,0.006676673889160156,-1.1074122190475464,0.7399277687072754
1763205801533034500,4.649034423828125,-0.2269001007080078,-0.9169777631759644,0.7231447696685791
1763205801548964600,4.664964599609375,-0.41843509674072266,-0.6745295524597168,0.6541839838027954
1763205801564925000,4.680925048828125,-1.197709083557129,-0.49801111221313477,0.579151451587677
1763205801580854800,4.696854736328125,-2.144143581390381,-0.31349802017211914,0.4538465440273285
1763205801596815400,4.7128154296875,-2.502816677093506,-0.16053271293640137,0.19809991121292114
1763205801612745200,4.7287451171875,-2.4237728118896484,-0.11964225769042969,0.14794455468654633
1763205801628705500,4.74470556640625,-1.774609088897705,-0.028036832809448242,0.31520533561706543
1763205801644635400,4.760635498046875,-1.1135711669921875,0.08390522003173828,0.6284957528114319
1763205801660596000,4.776595947265625,-1.3680925369262695,0.3862757682800293,0.885550856590271
1763205801676525800,4.79252587890625,-2.06239652633667,0.5589034557342529,0.8051199913024902
1763205801692455700,4.80845556640625,-2.4989190101623535,0.5708587169647217,0.7277114391326904
1763205801708416300,4.824416259765625,-2.0951437950134277,0.39814090728759766,0.472337543964386
1763205801724346000,4.84034619140625,-1.0450105667114258,0.14082694053649902,0.35707414150238037
1763205801740306400,4.856306396484375,0.29900550842285156,-0.06532645225524902,0.1967191994190216
1763205801756236300,4.872236328125,1.2135133743286133,-0.27112269401550293,-0.03349864482879639
1763205801772196900,4.88819677734375,0.8924131393432617,-0.23411965370178223,-0.25538370013237
1763205801788126700,4.904126708984375,0.1451587677001953,0.10979509353637695,-0.2475113868713379
1763205801804087000,4.920087158203125,-0.17803096771240234,0.4501969814300537,-0.009297966957092285
1763205801820017200,4.93601708984375,-0.040688514709472656,0.6107475757598877,0.15410476922988892
1763205801835977500,4.9519775390625,0.41942405700683594,0.6280786991119385,0.21844297647476196
1763205801851907300,4.9679072265625,0.7169771194458008,0.5622448921203613,-0.025469481945037842
1763205801867868000,4.983867919921875,1.0119237899780273,0.5101392269134521,-0.11321580410003662
1763205801883797800,4.9997978515625,0.9502038955688477,0.4740607738494873,-0.0052909255027771
1763205801899758000,5.015758056640625,0.8586435317993164,0.5050137042999268,-0.0979158878326416
1763205801915718700,5.03171875,0.8121232986450195,0.5107717514038086,0.015200138092041016
1763205801931679000,5.047678955078125,1.3127574920654297,0.49242305755615234,0.19465580582618713
1763205801947608800,5.06360888671875,2.1582984924316406,0.2591822147369385,0.16759085655212402
1763205801963539000,5.0795390625,3.134552001953125,-0.33083391189575195,0.03524065017700195
1763205801979499300,5.095499267578125,3.894611358642578,-0.9401471614837646,-0.22725847363471985
1763205801995429000,5.11142919921875,3.639187812805176,-1.278053641319275,-0.3526499569416046
1763205802011389700,5.1273896484375,3.3318586349487305,-1.5447264909744263,-0.4309192895889282
1763205802027319600,5.143319580078125,2.446107864379883,-1.674741506576538,-0.6364122033119202
1763205802043280000,5.15927978515625,0.4346199035644531,-1.4842578172683716,-1.0430660247802734
1763205802059240400,5.175240478515625,-1.376272201538086,-1.2603639364242554,-1.4453034400939941
1763205802075200800,5.19120068359375,-2.596374988555908,-1.138927936553955,-1.767430067062378
1763205802091161000,5.2071611328125,-2.9033803939819336,-1.025264859199524,-2.078352689743042
1763205802107121700,5.22312158203125,-1.9455442428588867,-1.11441171169281,-1.8977423906326294
1763205802123051500,5.239051513671875,-1.1560020446777344,-1.1358559131622314,-1.3233847618103027
1763205802138981400,5.2549814453125,-0.7159299850463867,-0.8351588249206543,-0.5741562843322754
1763205802154942000,5.27094189453125,-0.1218271255493164,-0.532304048538208,0.17004096508026123
1763205802170902300,5.28690234375,1.6853647232055664,-0.7406842708587646,0.517996072769165
1763205802186832100,5.30283203125,3.281989097595215,-1.1133159399032593,0.4132538139820099
1763205802202792700,5.318792724609375,3.4937658309936523,-1.6371333599090576,-0.1640675961971283
1763205802218722600,5.33472265625,2.08298397064209,-1.6740288734436035,-0.6508312225341797
1763205802234683000,5.350682861328125,-0.05948638916015625,-1.1846668720245361,-0.6838446259498596
1763205802250612700,5.36661279296875,-1.5450997352600098,-0.5733284950256348,-0.5036913156509399
1763205802266542800,5.38254296875,-2.401418685913086,-0.08971810340881348,-0.14633911848068237
1763205802282503200,5.398503173828125,-2.846500873565674,0.07925009727478027,0.13983610272407532
1763205802298433000,5.41443310546875,-2.6617469787597656,0.03109121322631836,0.030268967151641846
1763205802314393600,5.4303935546875,-2.067570209503174,-0.09670901298522949,-0.17459642887115479
1763205802330323500,5.446323486328125,-1.5840821266174316,-0.16918301582336426,-0.3451080322265625
1763205802346283800,5.46228369140625,-1.18017578125,-0.14755892753601074,-0.6016066670417786
1763205802362214000,5.4782138671875,-0.9994926452636719,-0.0537877082824707,-0.6005346179008484
1763205802378143700,5.494143798828125,-0.8877601623535156,0.23751115798950195,-0.3021564483642578
1763205802394104000,5.51010400390625,-0.8583488464355469,0.6351816654205322,0.21217940747737885
1763205802410034000,5.526033935546875,-0.5238304138183594,0.7144439220428467,0.12173083424568176
1763205802425994500,5.541994384765625,-0.12683391571044922,0.5441346168518066,-0.16482067108154297
1763205802441954800,5.557954833984375,0.042499542236328125,0.37055063247680664,-0.5282267332077026
1763205802457884700,5.573884765625,0.024095535278320312,0.30513930320739746,-0.9474152326583862
1763205802473845200,5.58984521484375,0.038066864013671875,0.3020029067993164,-0.912592887878418
1763205802489775000,5.605775146484375,-0.3204364776611328,0.6500647068023682,-0.5004226565361023
1763205802505735400,5.6217353515625,-0.5949010848999023,0.8015236854553223,-0.23712527751922607
1763205802521665500,5.63766552734375,0.05346202850341797,0.5938012599945068,-0.3385332226753235
1763205802537595400,5.653595458984375,1.4559097290039062,0.2580554485321045,-0.5461833477020264
1763205802553555700,5.6695556640625,2.0586042404174805,-0.001058816909790039,-0.7504832744598389
1763205802569485600,5.685485595703125,1.6752729415893555,-0.08924484252929688,-0.7305756211280823
1763205802585446100,5.701446044921875,1.3736801147460938,0.058593034744262695,-0.5836976766586304
1763205802601376000,5.7173759765625,1.2621955871582031,0.10509443283081055,-0.09814167022705078
1763205802617336300,5.73333642578125,1.379502296447754,0.06272125244140625,0.2785523533821106
1763205802633297000,5.749296875,1.7564992904663086,-0.04268908500671387,0.6203574538230896
1763205802649226800,5.765226806640625,2.1931800842285156,-0.2471332550048828,0.9043650031089783
1763205802665187000,5.78118701171875,3.156399726867676,-0.7110378742218018,0.7744643688201904
1763205802681117200,5.7971171875,3.9683303833007812,-1.319983959197998,0.5134365558624268
1763205802697047000,5.813047119140625,3.72684383392334,-1.5955145359039307,0.19515496492385864
1763205802713007400,5.82900732421875,2.160000801086426,-1.3312559127807617,0.26861298084259033
1763205802728968000,5.844968017578125,0.3506584167480469,-1.0222463607788086,0.5546706318855286
1763205802744897800,5.860897705078125,-0.632420539855957,-0.9337629079818726,0.5932024717330933
1763205802760858000,5.876858154296875,-0.4981651306152344,-1.011273741722107,0.5489192605018616
1763205802776818700,5.892818603515625,-0.004578590393066406,-1.0745410919189453,0.6507415175437927
1763205802792779000,5.908779052734375,0.009869575500488281,-0.9160863161087036,0.5891625285148621
1763205802808739600,5.924739501953125,-0.4183006286621094,-0.5282669067382812,0.6463174223899841
1763205802824669400,5.94066943359375,-0.8960542678833008,-0.224959135055542,0.7407822012901306
1763205802840629800,5.956629638671875,-1.0260438919067383,-0.08792996406555176,0.5471649765968323
1763205802856559600,5.9725595703125,-1.313216209411621,0.0353240966796875,0.40753641724586487
1763205802872489700,5.98848974609375,-1.4079694747924805,0.027956724166870117,0.19405782222747803
1763205802888450000,6.004449951171875,-0.9459781646728516,-0.09433984756469727,-0.11457356065511703
1763205802904380000,6.0203798828125,-0.48860645294189453,-0.03773665428161621,-0.01791778765618801
1763205802920340500,6.036340576171875,-0.28864288330078125,0.10261964797973633,0.35084667801856995
1763205802936300800,6.05230078125,-0.6160545349121094,0.25983381271362305,0.600381076335907
1763205802952261000,6.06826123046875,-1.1912517547607422,0.40532708168029785,0.627541184425354
1763205802968221700,6.0842216796875,-1.575948715209961,0.5245521068572998,0.5762235522270203
1763205802984151600,6.100151611328125,-1.365921974182129,0.5566558837890625,0.5295078158378601
1763205803000111900,6.11611181640625,-0.6592292785644531,0.40519118309020996,0.28309738636016846
1763205803016072400,6.132072509765625,-0.33675670623779297,0.25671982765197754,0.097608283162117
1763205803032002300,6.148002197265625,-0.14501667022705078,0.23737001419067383,0.012085244059562683
1763205803047962600,6.163962646484375,-0.3754100799560547,0.3020045757293701,-0.03930486738681793
1763205803063923200,6.179923095703125,-0.5965404510498047,0.2746865749359131,-0.1464044153690338
1763205803079883500,6.195883544921875,-0.9162836074829102,0.400679349899292,-0.05508601665496826
1763205803095874600,6.21187451171875,-1.2742595672607422,0.7354018688201904,0.07461418211460114
1763205803111835000,6.2278349609375,-1.4469528198242188,0.9810984134674072,0.07655757665634155
1763205803127795500,6.24379541015625,-0.7158174514770508,1.03470778465271,-0.08396923542022705
1763205803143755800,6.259755859375,-0.11473751068115234,0.8806495666503906,-0.11260810494422913
1763205803159716400,6.27571630859375,0.3457365036010742,0.6844058036804199,-0.04597878456115723
1763205803175676700,6.2916767578125,0.6636791229248047,0.46686458587646484,0.07471299171447754
1763205803191606500,6.3076064453125,1.2539491653442383,0.412625789642334,0.1893421858549118
1763205803207567000,6.323567138671875,1.9826126098632812,0.4865107536315918,0.35488027334213257
1763205803223527400,6.33952734375,2.134584426879883,0.4545125961303711,0.31789103150367737
1763205803239487700,6.35548779296875,2.162295341491699,0.23598337173461914,-0.22808977961540222
1763205803255448300,6.3714482421875,2.1551685333251953,0.09731054306030273,-0.6474007368087769
1763205803271408600,6.38740869140625,2.300318717956543,-0.19652891159057617,-0.6770411729812622
1763205803287369200,6.403369140625,2.5174732208251953,-0.593808650970459,-0.7561994194984436
1763205803303299000,6.419299072265625,2.6574602127075195,-1.0833632946014404,-0.8075650930404663
1763205803319259400,6.43525927734375,2.919057846069336,-1.6158058643341064,-0.9189761281013489
1763205803335189200,6.451189208984375,2.370816230773926,-1.7010899782180786,-1.1502599716186523
1763205803351149800,6.46714990234375,0.5626707077026367,-1.4061537981033325,-1.3162708282470703
1763205803367110100,6.483110107421875,-0.874598503112793,-0.9620040655136108,-1.450907588005066
1763205803383070700,6.49907080078125,-1.4903583526611328,-0.707017183303833,-1.3111979961395264
1763205803399000600,6.51500048828125,-1.263352394104004,-0.7170283794403076,-0.8365457057952881
1763205803414961000,6.5309609375,-0.4709444046020508,-0.9359133243560791,-0.44526374340057373
1763205803430921500,6.54692138671875,0.33823680877685547,-0.9371902942657471,0.07573097944259644
1763205803446851300,6.562851318359375,0.6432065963745117,-0.7418123483657837,0.6131407022476196
1763205803462811600,6.578811767578125,0.47463417053222656,-0.5259263515472412,0.7660738825798035
1763205803478741800,6.59474169921875,0.3947315216064453,-0.48606133460998535,0.6408432722091675
1763205803494702000,6.6107021484375,0.2466745376586914,-0.6429048776626587,0.20122605562210083
1763205803510632000,6.6266318359375,0.37459278106689453,-1.075898289680481,-0.5393603444099426
1763205803526592500,6.642592529296875,0.08052730560302734,-1.2197065353393555,-0.7560681700706482
1763205803542522400,6.6585224609375,-0.9371004104614258,-0.7811169624328613,-0.3031942844390869
1763205803558482700,6.674482666015625,-1.335658073425293,-0.22127437591552734,-0.07054346799850464
1763205803574412500,6.69041259765625,-1.692021369934082,0.033872365951538086,0.16221100091934204
1763205803590373000,6.706373046875,-1.7918100357055664,0.15689587593078613,0.19836348295211792
1763205803606303000,6.722302978515625,-1.89915132522583,0.22690296173095703,0.20622050762176514
1763205803622263300,6.73826318359375,-1.5571341514587402,0.22349858283996582,-0.033727824687957764
1763205803638193400,6.754193359375,-1.168644905090332,0.32582712173461914,-0.19940441846847534
1763205803654123300,6.770123291015625,-0.6994037628173828,0.35331058502197266,-0.2516480088233948
1763205803670083600,6.78608349609375,-0.20841312408447266,0.3883519172668457,-0.24067756533622742
1763205803686044200,6.802044189453125,0.0689239501953125,0.30586957931518555,-0.2744027078151703
1763205803701974000,6.81797412109375,0.3391103744506836,0.2580432891845703,-0.33055585622787476
1763205803717934300,6.833934326171875,0.5586309432983398,0.36928582191467285,-0.2313978672027588
1763205803733895000,6.84989501953125,0.3637886047363281,0.5975806713104248,-0.2465684413909912
1763205803749824800,6.86582470703125,-0.0065364837646484375,0.6352787017822266,-0.4477788805961609
1763205803765785000,6.88178515625,-0.3183174133300781,0.6913788318634033,-0.3976147174835205
1763205803781715000,6.89771484375,-0.22690391540527344,0.6421360969543457,-0.4220452308654785
1763205803797675500,6.913675537109375,-0.059261322021484375,0.5912132263183594,-0.1536293923854828
1763205803813605400,6.92960546875,0.2382030487060547,0.469207763671875,0.13871316611766815
1763205803829566000,6.94556591796875,0.9638118743896484,0.3034782409667969,0.18336032330989838
1763205803845526300,6.9615263671875,1.6115989685058594,0.05379772186279297,-0.12971559166908264
1763205803861456100,6.9774560546875,1.5766029357910156,-0.1612861156463623,-0.34426382184028625
1763205803877416700,6.993416748046875,1.1994943618774414,-0.03980875015258789,-0.14794780313968658
1763205803893346600,7.0093466796875,0.9518404006958008,0.08139181137084961,0.13714951276779175
1763205803909307000,7.025306884765625,1.0376386642456055,-0.1367626190185547,0.1707046627998352
1763205803925236700,7.04123681640625,1.4865198135375977,-0.4018237590789795,0.401444673538208
1763205803941197300,7.057197265625,2.0195655822753906,-0.67356276512146,0.5345051288604736
1763205803957157600,7.07315771484375,2.7644128799438477,-0.9711790084838867,0.5617867112159729
1763205803973087500,7.08908740234375,3.2313404083251953,-1.1497726440429688,0.6791144609451294
1763205803989048000,7.105048095703125,3.114020347595215,-1.275746464729309,0.7353041768074036
1763205804004978000,7.12097802734375,1.847538948059082,-1.1988004446029663,0.8603373765945435
1763205804020938200,7.136938232421875,0.44954490661621094,-1.0734491348266602,0.8940624594688416
1763205804036868400,7.152868408203125,-0.5473098754882812,-0.9468413591384888,0.9501042366027832
1763205804052828700,7.16882861328125,-0.9783363342285156,-1.0211633443832397,0.7262418866157532
1763205804068758500,7.184758544921875,-0.861994743347168,-1.0506151914596558,0.5922872424125671
1763205804084719000,7.200718994140625,-0.5542993545532227,-0.9890016317367554,0.9288073182106018
1763205804100679400,7.216679443359375,-0.20582962036132812,-0.7124282121658325,1.1326537132263184
1763205804116639700,7.2326396484375,-0.11335945129394531,-0.5406816005706787,1.1650102138519287
1763205804132600300,7.248600341796875,-0.41832923889160156,-0.5402014255523682,0.7991869449615479
1763205804148530200,7.2645302734375,-0.8730154037475586,-0.42639780044555664,0.39475786685943604
1763205804164490500,7.280490478515625,-1.1208972930908203,-0.19417095184326172,0.3391391932964325
1763205804180451000,7.296451171875,-1.5418601036071777,0.1620774269104004,0.47317183017730713
1763205804196411400,7.312411376953125,-1.4307374954223633,0.1979506015777588,0.1994449347257614
1763205804212372000,7.3283720703125,-0.7828741073608398,0.008340120315551758,-0.051057472825050354
1763205804228332300,7.344332275390625,-0.4150094985961914,0.062074899673461914,0.13095322251319885
1763205804244262100,7.36026220703125,-0.4339485168457031,0.2798328399658203,0.3819771707057953
1763205804260222700,7.37622265625,-0.6766586303710938,0.42178893089294434,0.5014022588729858
1763205804276183000,7.39218310546875,-0.8727531433105469,0.43807387351989746,0.43703800439834595
1763205804292143600,7.4081435546875,-0.8122282028198242,0.4719209671020508,0.3008914589881897
1763205804308104000,7.42410400390625,-0.7540206909179688,0.40281009674072266,0.17744530737400055
1763205804324125400,7.44012548828125,-0.4584808349609375,0.31389617919921875,0.05885937809944153
1763205804340116200,7.4561162109375,-0.28235912322998047,0.3805389404296875,0.24025611579418182
1763205804356107300,7.472107177734375,-0.4943275451660156,0.6446588039398193,0.4917435348033905
1763205804372067600,7.488067626953125,-0.47785091400146484,0.6538195610046387,0.6587978601455688
1763205804388028200,7.504028076171875,-0.6122817993164062,0.7408630847930908,0.436240553855896
1763205804404019000,7.52001904296875,-0.9537734985351562,0.7353005409240723,0.3748722970485687
1763205804420010000,7.536010009765625,-0.6643762588500977,0.5050547122955322,-0.0881136953830719
1763205804435970600,7.551970458984375,-0.13136768341064453,0.2337179183959961,-0.29808712005615234
1763205804451961300,7.56796142578125,0.5761346817016602,0.023428916931152344,-0.37632638216018677
1763205804467922000,7.583921875,1.2643909454345703,-0.23364496231079102,-0.2883172333240509
1763205804483912700,7.59991259765625,1.5915966033935547,-0.28286242485046387,-0.35841017961502075
1763205804499903700,7.61590380859375,1.2083539962768555,-0.19585967063903809,-0.4693714380264282
1763205804515894500,7.63189453125,0.8311271667480469,-0.12546133995056152,-0.5498111844062805
1763205804531885600,7.647885498046875,1.2902793884277344,-0.09307336807250977,-0.4796965718269348
1763205804547876600,7.663876708984375,2.334456443786621,-0.29203343391418457,-0.2658941149711609
1763205804563928600,7.679928466796875,3.6876745223999023,-0.6693506240844727,-0.0993955135345459
1763205804579980500,7.69598046875,4.57121467590332,-1.2493102550506592,-0.37488850951194763
1763205804596002000,7.712001953125,4.786735534667969,-1.7554901838302612,-0.822831392288208
1763205804611992800,7.727992919921875,3.8293304443359375,-1.8991689682006836,-1.1698575019836426
1763205804627953400,7.743953369140625,1.1317548751831055,-1.5452336072921753,-1.1622741222381592
1763205804643913700,7.759913818359375,-1.4758081436157227,-1.078090786933899,-1.2617223262786865
1763205804659874000,7.7758740234375,-2.738182544708252,-0.9533967971801758,-1.447232723236084
1763205804675865000,7.791864990234375,-2.992201328277588,-0.7190768718719482,-1.808132290840149
1763205804691856100,7.807856201171875,-2.2365078926086426,-0.6752293109893799,-1.5893350839614868
1763205804707847000,7.823846923828125,-1.195784568786621,-0.5283279418945312,-0.8777016997337341
1763205804723868400,7.839868408203125,-0.8985662460327148,-0.16623497009277344,-0.13603222370147705
1763205804739859500,7.855859375,-0.8430461883544922,-0.011114358901977539,0.2809876799583435
1763205804755819800,7.87181982421875,0.04417610168457031,-0.31311845779418945,0.1804247498512268
1763205804771810800,7.887810791015625,1.5446195602416992,-0.8779594898223877,-0.1722806692123413
1763205804787801600,7.903801513671875,2.5317821502685547,-1.367172360420227,-0.6598709225654602
1763205804803762200,7.91976220703125,2.3953475952148438,-1.5730468034744263,-1.0456130504608154
1763205804819722500,7.935722412109375,1.4874639511108398,-1.3896067142486572,-1.179724931716919
1763205804835683000,7.95168310546875,0.19282245635986328,-0.8919124603271484,-0.7832350730895996
1763205804851643400,7.967643310546875,-0.9954891204833984,-0.3553121089935303,-0.44150081276893616
1763205804867603700,7.983603759765625,-1.9492998123168945,-0.11783862113952637,-0.42656102776527405
1763205804883564300,7.999564208984375,-2.162875175476074,-0.0606076717376709,-0.40528932213783264
1763205804899555000,8.01555517578125,-1.2737674713134766,-0.15377569198608398,-0.6079002618789673
1763205804915546000,8.031546142578126,-0.7331829071044922,-0.08573627471923828,-0.5983148813247681
1763205804931537200,8.047537109375,-0.7136859893798828,0.1470041275024414,-0.44800299406051636
1763205804947528000,8.06352783203125,-0.669342041015625,0.1697096824645996,-0.45253026485443115
1763205804963519000,8.07951904296875,-0.33399200439453125,0.0388796329498291,-0.6116851568222046
1763205804979479300,8.095479248046875,0.23796463012695312,-0.04887270927429199,-0.6789065599441528
1763205804995439900,8.11143994140625,0.49062252044677734,0.029129981994628906,-0.47172650694847107
1763205805011400200,8.127400146484375,0.24189186096191406,0.18521666526794434,-0.35845500230789185
1763205805027391200,8.14339111328125,-0.25485801696777344,0.3227081298828125,-0.49676671624183655
1763205805043382000,8.159382080078124,-0.8976306915283203,0.5628671646118164,-0.5100219249725342
1763205805059373000,8.175373046875,-0.8579940795898438,0.570042610168457,-0.6080058813095093
1763205805075394600,8.19139453125,-0.5509185791015625,0.5769519805908203,-0.6316210627555847
1763205805091355000,8.20735498046875,-0.12460613250732422,0.5462632179260254,-0.810167670249939
1763205805107376400,8.22337646484375,-0.04533195495605469,0.37302613258361816,-0.9563483595848083
1763205805123367400,8.239367431640625,-0.0029764175415039062,0.3053603172302246,-1.1381902694702148
1763205805139358200,8.255358154296875,0.4120321273803711,0.2908518314361572,-1.0373824834823608
1763205805155349200,8.271349365234375,1.3357172012329102,0.3394196033477783,-1.0219182968139648
1763205805171370800,8.287370849609376,1.3583812713623047,0.24887323379516602,-0.9860418438911438
1763205805187331000,8.3033310546875,1.2466650009155273,0.21105360984802246,-0.7190662622451782
1763205805203291600,8.319291748046876,1.5770196914672852,0.18124032020568848,-0.40732279419898987
1763205805219252000,8.335251953125,1.5696420669555664,-0.040084123611450195,-0.20435559749603271
1763205805235212300,8.35121240234375,1.2256145477294922,-0.12384796142578125,-0.06618936359882355
1763205805251203300,8.367203369140626,1.2513608932495117,-0.18022370338439941,0.24247048795223236
1763205805267163600,8.38316357421875,2.0527830123901367,-0.4632408618927002,0.5096877217292786
1763205805283124200,8.399124267578125,3.019841194152832,-0.8672189712524414,0.5261512398719788
1763205805299084500,8.41508447265625,2.938626289367676,-1.1960505247116089,0.44063541293144226
1763205805315045000,8.431045166015625,1.8532648086547852,-1.1996957063674927,0.15209653973579407
1763205805331005400,8.44700537109375,0.18089962005615234,-1.0537540912628174,0.010912328958511353
1763205805346996500,8.46299658203125,-0.7352409362792969,-0.9673324823379517,0.04389478266239166
1763205805362956800,8.478956787109375,-1.2058792114257812,-0.7976164817810059,0.31984221935272217
1763205805378886700,8.49488671875,-0.8066186904907227,-0.6964120864868164,0.34495365619659424
1763205805394847200,8.51084716796875,-0.5203580856323242,-0.7733745574951172,0.35337918996810913
1763205805410807600,8.5268076171875,0.18705177307128906,-0.8044848442077637,0.356680303812027
1763205805426768000,8.542767822265626,1.073012351989746,-0.7378323078155518,0.3587455451488495
1763205805442728400,8.558728515625,1.435659408569336,-0.5998880863189697,0.312014639377594
1763205805458688800,8.574688720703126,0.8077373504638672,-0.4932417869567871,0.12873320281505585
1763205805474618600,8.59061865234375,-0.338287353515625,-0.36180567741394043,-0.09438249468803406
1763205805490609700,8.606609619140626,-1.1548376083374023,-0.2188866138458252,-0.32887396216392517
1763205805506600700,8.6226005859375,-1.7675251960754395,-0.10969281196594238,-0.2972317636013031
1763205805522622200,8.638622314453125,-1.5698566436767578,-0.14732909202575684,-0.39386671781539917
1763205805538613000,8.654613037109375,-1.1204681396484375,-0.05897021293640137,-0.3039320111274719
1763205805554573600,8.670573486328125,-0.538945198059082,0.014874696731567383,-0.07513682544231415
1763205805570534000,8.686533935546874,-0.4423513412475586,0.03019881248474121,0.015051677823066711
1763205805586494200,8.702494140625,-0.8407926559448242,0.12207245826721191,-0.03067237138748169
1763205805602454800,8.718454833984374,-1.4449424743652344,0.4687654972076416,0.24639342725276947
1763205805618384600,8.734384521484374,-1.229191780090332,0.5898528099060059,0.2847791314125061
1763205805634345000,8.750344970703125,-0.25039100646972656,0.3240017890930176,0.17771974205970764
1763205805650305500,8.766305419921874,0.24969005584716797,0.020555496215820312,-0.09542688727378845
1763205805666265900,8.782265869140625,0.10297012329101562,-0.08200573921203613,-0.4853684902191162
1763205805682257000,8.7982568359375,-0.09647750854492188,-0.12888646125793457,-0.6999491453170776
1763205805698247700,8.81424755859375,-0.339630126953125,0.154463529586792,-0.38447028398513794
1763205805714208300,8.830208251953126,-0.17185020446777344,0.4781067371368408,-0.08028554916381836
1763205805730168600,8.84616845703125,-0.11604499816894531,0.7294838428497314,0.27357804775238037
1763205805746129200,8.862129150390626,-0.04007911682128906,0.8004710674285889,0.25701838731765747
1763205805762089500,8.87808935546875,-0.05351734161376953,0.7129116058349609,-0.014112025499343872
1763205805778050000,8.894050048828126,0.4202423095703125,0.3073277473449707,-0.5277187824249268
1763205805794010400,8.91001025390625,0.9470100402832031,0.1146078109741211,-0.6197942495346069
1763205805809970700,8.925970703125,1.502206802368164,0.09655952453613281,-0.5610465407371521
1763205805825961700,8.941961669921875,1.591425895690918,0.11831259727478027,-0.3492336869239807
1763205805841922000,8.957922119140624,1.0989046096801758,0.23558664321899414,-0.045582115650177
1763205805857882600,8.973882568359375,0.5175704956054688,0.40826416015625,0.1615816354751587
1763205805873843000,8.989843017578124,0.37539005279541016,0.11126136779785156,-0.16876590251922607
1763205805889834000,9.005833984375,1.0257234573364258,-0.5392684936523438,-0.64365553855896
1763205805905794300,9.021794189453125,1.8424930572509766,-1.0241446495056152,-0.9643721580505371
1763205805921755000,9.0377548828125,3.034482955932617,-1.443899393081665,-0.872039794921875
1763205805937684700,9.053684814453124,3.3670272827148438,-1.6390292644500732,-0.4848487973213196
1763205805953645000,9.06964501953125,1.7874317169189453,-1.3231912851333618,-0.7617670297622681
1763205805969575000,9.085574951171875,-0.4634132385253906,-1.0250282287597656,-1.3415310382843018
1763205805985535500,9.101535400390626,-2.555591583251953,-0.894078254699707,-1.6563351154327393
1763205806001465300,9.11746533203125,-3.11224365234375,-0.6335923671722412,-1.986311435699463
1763205806017456400,9.133456298828126,-2.3190431594848633,-0.6780579090118408,-1.9302351474761963
1763205806033416700,9.149416748046875,-0.7031955718994141,-0.9051098823547363,-1.6455042362213135
1763205806049377300,9.165377197265625,0.27046680450439453,-0.8312904834747314,-1.011474370956421
1763205806065337600,9.181337646484375,0.6583595275878906,-0.6138768196105957,-0.2959079146385193
1763205806081298000,9.1972978515625,1.0949716567993164,-0.532149076461792,0.2531624138355255
1763205806097258500,9.213258544921874,1.9259185791015625,-0.742168664932251,0.07684314250946045
1763205806113218800,9.22921875,2.0018577575683594,-1.0047024488449097,-0.27273809909820557
1763205806129209900,9.2452099609375,1.1718902587890625,-1.1066029071807861,-0.671612024307251
1763205806145139700,9.2611396484375,0.31447696685791016,-1.0079536437988281,-0.9771117568016052
1763205806161100000,9.27710009765625,-0.4225025177001953,-0.6595325469970703,-0.771766185760498
1763205806177060600,9.293060546875,-1.0868968963623047,-0.2616715431213379,-0.512985348701477
1763205806193051400,9.309051513671875,-1.645340919494629,-0.08254480361938477,-0.5330770015716553
1763205806209012000,9.325011962890626,-2.0692877769470215,0.0055103302001953125,-0.6064186692237854
1763205806225002800,9.341002685546876,-2.186234951019287,0.08927249908447266,-0.6643153429031372
1763205806240963300,9.35696337890625,-1.9441804885864258,0.04228639602661133,-0.7800770998001099
1763205806256893200,9.37289306640625,-1.1101064682006836,0.004731416702270508,-0.857559323310852
1763205806272853500,9.388853515625,-0.3663797378540039,-0.01004934310913086,-0.6883450150489807
1763205806288814000,9.40481396484375,-0.08139610290527344,0.19810986518859863,-0.4638229012489319
1763205806304805000,9.42080517578125,0.21002864837646484,0.4122657775878906,-0.35119420289993286
1763205806320765400,9.436765380859375,0.1846790313720703,0.3753926753997803,-0.40357744693756104
1763205806336725800,9.452725830078125,-0.29416656494140625,0.4312763214111328,-0.6086723804473877
1763205806352716800,9.468716796875,-0.7306928634643555,0.624394416809082,-0.6023034453392029
1763205806368677000,9.484677001953125,-0.6801385879516602,0.8448915481567383,-0.33868223428726196
1763205806384637700,9.5006376953125,-0.07711219787597656,0.7048437595367432,-0.37749767303466797
1763205806400598000,9.516597900390625,0.9425144195556641,0.32185912132263184,-0.5750321745872498
1763205806416558600,9.53255859375,1.4497051239013672,0.16528987884521484,-0.810183584690094
1763205806432519000,9.548518798828125,1.5397577285766602,0.05805206298828125,-0.8368406295776367
1763205806448479200,9.564479248046876,1.2875709533691406,0.1419522762298584,-0.5989745855331421
1763205806464439800,9.580439697265625,1.035531997680664,0.28765177726745605,-0.5810189247131348
1763205806480400100,9.596400146484376,0.3813915252685547,0.5886852741241455,-0.45672303438186646
1763205806496421600,9.612421630859375,0.07360363006591797,0.6746640205383301,-0.163627028465271
1763205806512412700,9.62841259765625,0.6173076629638672,0.5167651176452637,-0.03554648160934448
1763205806528403500,9.644403564453125,1.2651910781860352,0.14492344856262207,0.10765531659126282
1763205806544364000,9.660364013671876,1.8254823684692383,-0.4136931896209717,-0.07759749889373779
1763205806560324400,9.676324462890625,2.590475082397461,-0.8515434265136719,-0.18225988745689392
1763205806576285000,9.692284912109375,3.048219680786133,-0.8784077167510986,0.20398378372192383
1763205806592245200,9.708245361328125,3.201963424682617,-0.8109738826751709,0.26549553871154785
1763205806608175000,9.724175048828124,2.5952625274658203,-0.8892239332199097,0.3209778070449829
1763205806624166100,9.740166259765624,1.4339590072631836,-0.9271951913833618,0.08759034425020218
1763205806640157000,9.756156982421874,0.9868488311767578,-1.0155317783355713,-0.05541983246803284
1763205806656117500,9.772117431640625,0.5488271713256836,-1.0920023918151855,0.1742151826620102
1763205806672108300,9.7881083984375,-0.138824462890625,-1.1174111366271973,0.36023932695388794
1763205806688099300,9.804099365234375,-0.9492568969726562,-1.1402511596679688,0.3948979377746582
1763205806704090400,9.82009033203125,-1.6637835502624512,-0.9853465557098389,0.4298289120197296
1763205806720050700,9.83605078125,-1.477025032043457,-0.8419504165649414,0.42301031947135925
1763205806736041700,9.852041748046876,-0.4369964599609375,-0.9434309005737305,0.30328935384750366
1763205806751971600,9.8679716796875,0.12054061889648438,-0.9579682350158691,0.21939313411712646
1763205806767962600,9.883962646484376,0.33431053161621094,-0.7936785221099854,0.08679375797510147
1763205806783923000,9.8999228515625,0.19613361358642578,-0.5688738822937012,0.02516491711139679
1763205806799883300,9.91588330078125,0.1262683868408203,-0.4168233871459961,0.06922662258148193
1763205806815843800,9.93184375,-0.6441354751586914,-0.1680450439453125,0.13823415338993073
1763205806831834600,9.947834716796875,-1.345780372619629,-0.0021774768829345703,0.029331088066101074
1763205806847795200,9.963795166015625,-1.2606096267700195,-0.09763026237487793,-0.20919832587242126
1763205806863755500,9.979755615234374,-1.0252714157104492,-0.08589911460876465,-0.20444795489311218
1763205806879716000,9.995716064453125,-0.44742870330810547,0.03941226005554199,-0.04501467943191528
1763205806895676400,10.011676513671874,-0.014576911926269531,0.12348365783691406,0.1907787322998047
1763205806911667500,10.02766748046875,0.07343101501464844,0.14292097091674805,0.37734168767929077
1763205806927658200,10.043658203125,0.06710147857666016,0.34073448181152344,0.7395662665367126
1763205806943618800,10.059618896484375,-0.5811347961425781,0.46625685691833496,0.6948379278182983
1763205806959579100,10.0755791015625,-0.8794727325439453,0.25556063652038574,0.07044744491577148
1763205806975509000,10.091509033203126,-0.6751928329467773,-0.045748233795166016,-0.3638737201690674
1763205806991469600,10.107469482421875,-0.2380838394165039,-0.05856680870056152,-0.19630283117294312
1763205807007430000,10.123429931640626,0.0052356719970703125,0.16385793685913086,0.16260048747062683
1763205807023359700,10.13935986328125,-0.07412147521972656,0.3836236000061035,0.4483916163444519
1763205807039320300,10.1553203125,-0.7909145355224609,0.7115814685821533,0.5738282203674316
1763205807055280600,10.17128076171875,-1.1914806365966797,0.662710428237915,-0.02705526351928711
1763205807071241200,10.1872412109375,-1.2091312408447266,0.5527687072753906,-0.3794459104537964
1763205807087201500,10.203201416015625,-0.7668113708496094,0.5736250877380371,-0.2824253439903259
1763205807103131400,10.21913134765625,-0.01861095428466797,0.392503023147583,-0.09262305498123169
1763205807119092000,10.235092041015625,0.6522579193115234,0.051962852478027344,0.0699109435081482
1763205807135021800,10.251021728515624,1.8030214309692383,-0.21970462799072266,0.0628882646560669
1763205807150982100,10.266982177734375,2.4249696731567383,-0.25319862365722656,0.15594440698623657
1763205807166942700,10.282942626953124,1.980240821838379,-0.038424015045166016,0.2416587471961975
1763205807182903000,10.298903076171875,1.1621103286743164,0.030949831008911133,-0.04258263111114502
1763205807198863400,10.31486328125,0.8689088821411133,-0.19952034950256348,-0.3355599641799927
1763205807214824000,10.330823974609375,1.1998586654663086,-0.4009521007537842,-0.48035484552383423
1763205807230753800,10.34675390625,1.9289875030517578,-0.43799281120300293,-0.3762250542640686
1763205807246714000,10.362714111328126,2.4766054153442383,-0.9183554649353027,-0.240717351436615
1763205807262644200,10.378644287109376,2.611614227294922,-1.268088698387146,-0.27708667516708374
1763205807278604500,10.3946044921875,1.6862983703613281,-1.3367063999176025,-0.7982082366943359
1763205807294534400,10.410534423828125,-0.22378921508789062,-1.0393285751342773,-1.1637178659439087
1763205807310495000,10.426494873046876,-2.206850051879883,-0.7307133674621582,-1.487504005432129
1763205807326455300,10.442455322265625,-2.9192371368408203,-0.4501981735229492,-1.682450532913208
1763205807342415600,10.45841552734375,-2.3179001808166504,-0.40018439292907715,-1.6850157976150513
1763205807358345700,10.474345703125,-0.7864665985107422,-0.6618556976318359,-1.3806058168411255
1763205807374306000,10.49030615234375,-0.19591999053955078,-0.6698346138000488,-1.146019697189331
1763205807390266400,10.506266357421875,-0.1335735321044922,-0.5604369640350342,-0.6987913250923157
1763205807406196500,10.522196533203125,0.36988353729248047,-0.5392739772796631,-0.3051789402961731
1763205807422156800,10.53815673828125,2.001535415649414,-0.8436746597290039,-0.29458051919937134
1763205807438086700,10.554086669921874,3.2397050857543945,-1.227318525314331,-0.47414839267730713
1763205807454047200,10.570047119140625,3.031047821044922,-1.2901729345321655,-0.6181262135505676
1763205807469977000,10.58597705078125,1.7187042236328125,-1.1086992025375366,-0.766336977481842
1763205807485937400,10.6019375,0.3593740463256836,-0.8167659044265747,-0.7842928767204285
1763205807501898000,10.61789794921875,-1.0188779830932617,-0.5113365650177002,-0.6829643845558167
1763205807517858300,10.6338583984375,-2.031095027923584,-0.20373249053955078,-0.7420983910560608
1763205807533788200,10.6497880859375,-1.9046287536621094,-0.1933732032775879,-0.8189951777458191
1763205807549718300,10.66571826171875,-1.2998638153076172,-0.3202934265136719,-0.6789605617523193
1763205807565678600,10.6816787109375,-0.8263864517211914,-0.21739888191223145,-0.6008428335189819
1763205807581608400,10.6976083984375,-0.6898965835571289,-0.01973128318786621,-0.5412029027938843
1763205807597569000,10.713569091796876,-0.9340276718139648,0.16677403450012207,-0.4930502772331238
1763205807613499000,10.729498779296875,-1.275766372680664,0.29413652420043945,-0.5563518404960632
1763205807629459200,10.745459228515625,-1.2694902420043945,0.41573143005371094,-0.47589075565338135
1763205807645389000,10.76138916015625,-0.7655878067016602,0.43059206008911133,-0.42943036556243896
1763205807661349600,10.777349609375,-0.22784042358398438,0.36039304733276367,-0.5430983304977417
1763205807677279500,10.793279541015625,0.026607513427734375,0.3076345920562744,-0.6225281953811646
1763205807693239800,10.80923974609375,0.09134769439697266,0.29996442794799805,-0.5446284413337708
1763205807709170000,10.825169921875,-0.01318359375,0.42777395248413086,-0.4523720145225525
1763205807725130200,10.841130126953125,0.21013736724853516,0.5077922344207764,-0.466730535030365
1763205807741060000,10.85706005859375,0.36327362060546875,0.5984573364257812,-0.25729644298553467
1763205807757020700,10.873020751953124,-0.020061492919921875,0.7587080001831055,-0.06085634231567383
1763205807772950500,10.888950439453126,-0.41844940185546875,0.7364740371704102,-0.301835834980011
1763205807788910800,10.904910888671875,-0.8074264526367188,0.503122091293335,-0.584099292755127
1763205807804840700,10.9208408203125,-0.567744255065918,0.30816173553466797,-0.8546557426452637
1763205807820801300,10.93680126953125,0.37877464294433594,0.2187509536743164,-1.0399882793426514
1763205807836731100,10.952731201171876,0.8583984375,0.29365992546081543,-0.6909233927726746
1763205807852691700,10.968691650390625,1.2148008346557617,0.29531311988830566,-0.3201192021369934
1763205807868621600,10.98462158203125,1.592691421508789,0.08414244651794434,-0.18231362104415894
1763205807884582000,11.000581787109375,2.0042428970336914,-0.29538869857788086,-0.21899616718292236
1763205807900511700,11.01651171875,2.592914581298828,-0.6058123111724854,-0.08895400166511536
1763205807916472300,11.032472412109374,3.526355743408203,-0.8022937774658203,0.17351175844669342
1763205807932402200,11.048402099609374,4.436617851257324,-0.9933514595031738,0.31573307514190674
1763205807948362500,11.064362548828125,3.841691017150879,-1.0853978395462036,0.34361302852630615
1763205807964292600,11.080292724609375,2.119962692260742,-1.1071604490280151,0.24454772472381592
1763205807980253000,11.0962529296875,0.9221639633178711,-1.08975088596344,0.2773725092411041
1763205807996182800,11.112182861328124,-0.49246788024902344,-1.064995288848877,0.41104552149772644
1763205808012112600,11.128112548828126,-1.2493419647216797,-0.9244239330291748,0.4341388940811157
1763205808028073200,11.1440732421875,-1.3394231796264648,-0.8715817928314209,0.5836120247840881
1763205808044003000,11.160003173828125,-0.8981609344482422,-0.8552341461181641,0.755152702331543
1763205808059963400,11.17596337890625,-0.4415731430053711,-0.9872539043426514,0.7953604459762573
1763205808075893500,11.1918935546875,-0.37325572967529297,-1.059135913848877,0.5562761425971985
1763205808091853800,11.207853759765625,0.1826772689819336,-1.1356937885284424,0.2878642976284027
1763205808107783700,11.22378369140625,0.7080183029174805,-1.1421282291412354,0.21236784756183624
1763205808123744300,11.239744140625,1.0531282424926758,-1.0365777015686035,0.09610256552696228
1763205808139674000,11.255674072265625,0.9240350723266602,-0.9165308475494385,0.003828108310699463
1763205808155634400,11.271634521484375,0.3085174560546875,-0.7232954502105713,-0.1354810893535614
1763205808171564300,11.287564208984374,-0.3046731948852539,-0.5175802707672119,-0.2610671818256378
1763205808187524900,11.30352490234375,-0.579345703125,-0.3739309310913086,-0.3393454849720001
1763205808203485200,11.319485107421874,-1.0327997207641602,-0.14039111137390137,-0.22681641578674316
1763205808219415000,11.3354150390625,-1.5157427787780762,0.11395454406738281,-0.1054908037185669
1763205808235375600,11.351375732421875,-1.482217788696289,0.3572111129760742,0.12016597390174866
1763205808251305500,11.367305419921875,-1.1782913208007812,0.5449938774108887,0.33262091875076294
1763205808267265800,11.383265869140626,-1.0965375900268555,0.6113402843475342,0.45234113931655884
1763205808283196000,11.39919580078125,-1.0746889114379883,0.45494651794433594,0.15192174911499023
1763205808299156200,11.41515625,-0.9857254028320312,0.2760164737701416,-0.1691654920578003
1763205808315086000,11.431086181640625,-1.0283870697021484,0.23218536376953125,-0.2089226245880127
1763205808331016200,11.44701611328125,-0.8338050842285156,0.4116933345794678,0.015614926815032959
1763205808346976500,11.4629765625,-0.4377880096435547,0.4669375419616699,0.11836570501327515
1763205808362936800,11.478936767578125,-0.106781005859375,0.5011794567108154,0.312298059463501
1763205808378867000,11.494866943359375,0.10450458526611328,0.49640583992004395,0.31727826595306396
1763205808394827300,11.5108271484375,-0.14167118072509766,0.4951517581939697,0.12268280982971191
1763205808410757000,11.526757080078125,-0.6089515686035156,0.5544095039367676,0.03384876251220703
1763205808426717700,11.5427177734375,-0.8536930084228516,0.6780283451080322,-0.019136369228363037
1763205808442647600,11.5586474609375,-0.8852481842041016,0.9416990280151367,0.20553964376449585
1763205808458607900,11.57460791015625,-0.3899507522583008,0.9819283485412598,0.19811338186264038
1763205808474537700,11.590537841796875,0.24242782592773438,0.5817151069641113,0.1129104495048523
1763205808490498300,11.606498291015624,1.2204036712646484,0.188370943069458,0.12188851833343506
1763205808506428200,11.62242822265625,1.4161920547485352,0.2720150947570801,0.22716081142425537
1763205808522388500,11.638388427734375,1.4904956817626953,0.2520267963409424,0.1135110855102539
1763205808538318600,11.654318603515625,1.7697057723999023,0.14771056175231934,0.09740358591079712
1763205808554279000,11.67027880859375,1.8147392272949219,0.13242244720458984,0.21179693937301636
1763205808570208800,11.686208740234376,2.0972719192504883,-0.20383977890014648,-0.1375686526298523
1763205808586169300,11.70216943359375,3.028079032897949,-0.8039982318878174,-0.7207702398300171
1763205808602099200,11.71809912109375,3.666645050048828,-1.4217039346694946,-0.832079291343689
1763205808618059500,11.7340595703125,3.425426483154297,-1.8381963968276978,-0.8030287027359009
1763205808634020000,11.75002001953125,2.136542320251465,-1.7439255714416504,-1.0661392211914062
1763205808649980400,11.76598046875,0.12081527709960938,-1.420852780342102,-1.451520323753357
1763205808665940700,11.781940673828124,-1.1876392364501953,-1.2566752433776855,-1.7742900848388672
1763205808681931800,11.797931884765624,-1.396486759185791,-1.1886762380599976,-1.6115691661834717
1763205808697892400,11.813892333984375,-0.6166801452636719,-1.2835144996643066,-1.081102728843689
1763205808713852700,11.829852783203124,0.11335086822509766,-1.3871454000473022,-0.47828179597854614
1763205808729782500,11.845782470703124,0.577326774597168,-1.1614686250686646,-0.028852224349975586
1763205808745743000,11.8617431640625,0.8369121551513672,-0.9335575103759766,0.25173258781433105
1763205808761673000,11.8776728515625,1.355055809020996,-1.028346300125122,0.1584165096282959
1763205808777633300,11.89363330078125,1.8036785125732422,-1.4613080024719238,-0.2072058916091919
1763205808793563100,11.909563232421876,1.3939695358276367,-1.6921470165252686,-0.5790809988975525
1763205808809523700,11.925523681640625,0.4487771987915039,-1.7206897735595703,-0.8622307181358337
1763205808825484000,11.941484130859376,-0.5555295944213867,-1.4023475646972656,-0.7644772529602051
1763205808841444600,11.957444580078125,-1.3792357444763184,-0.8641116619110107,-0.4823399782180786
1763205808857374500,11.97337451171875,-1.949465274810791,-0.560150146484375,-0.36455655097961426
1763205808873334800,11.989334716796876,-2.2645092010498047,-0.5522434711456299,-0.6184484958648682
1763205808889264600,12.0052646484375,-2.316941738128662,-0.5707423686981201,-0.7763755917549133
1763205808905225200,12.02122509765625,-2.119903087615967,-0.31557798385620117,-0.500651478767395
1763205808921185500,12.037185546875,-1.5801506042480469,0.0313723087310791,-0.2508154511451721
1763205808937115400,12.053115478515625,-1.0224056243896484,0.30468225479125977,-0.16944390535354614
1763205808953076000,12.069075927734374,-0.23244094848632812,0.2901163101196289,-0.3266443610191345
1763205808969036300,12.085036376953125,0.2272815704345703,0.16006135940551758,-0.6625876426696777
1763205808984996900,12.100996826171874,0.4871482849121094,0.06651926040649414,-0.8747530579566956
1763205809000987600,12.116987548828124,0.9649696350097656,0.09149861335754395,-0.7991832494735718
1763205809016948200,12.1329482421875,1.0494756698608398,0.25840020179748535,-0.4659798741340637
1763205809032908500,12.148908447265624,0.5444564819335938,0.4867677688598633,-0.26988691091537476
1763205809048869000,12.164869140625,-0.0139617919921875,0.7519271373748779,-0.09312629699707031
1763205809064829400,12.180829345703126,0.13507938385009766,0.6798496246337891,-0.015469610691070557
1763205809080789800,12.196789794921875,0.21294593811035156,0.5368232727050781,0.09577697515487671
1763205809096720000,12.212719970703125,0.37337589263916016,0.3755793571472168,0.006856203079223633
1763205809112680200,12.22868017578125,0.5422286987304688,0.2006990909576416,-0.09570103883743286
1763205809128640500,12.244640625,0.6354074478149414,0.1981663703918457,-0.13896751403808594
1763205809144570600,12.260570556640625,0.4007568359375,0.25698256492614746,-0.17368364334106445
1763205809160531000,12.276531005859376,0.16727638244628906,0.24792957305908203,-0.14585351943969727
1763205809176460800,12.292460693359375,0.3372774124145508,0.39701008796691895,0.13295257091522217
1763205809192390700,12.308390625,1.233175277709961,0.07413029670715332,-0.011997997760772705
1763205809208351200,12.324351318359374,1.9329700469970703,-0.40248560905456543,-0.03425180912017822
1763205809224281000,12.340281005859374,2.674968719482422,-0.6633265018463135,0.2201513946056366
1763205809240241400,12.356241455078125,3.8671531677246094,-0.9638676643371582,0.4847980737686157
1763205809256171500,12.372171630859375,5.192717552185059,-1.1726436614990234,0.7551714181900024
1763205809272131800,12.3881318359375,5.273395538330078,-1.286538004875183,1.05363929271698
1763205809288061700,12.404061767578124,3.3713607788085938,-1.1200783252716064,1.1856573820114136
1763205809304022300,12.420022216796875,1.1141672134399414,-0.8341207504272461,1.0858256816864014
1763205809319952100,12.4359521484375,-0.5764217376708984,-0.6399359703063965,1.2361788749694824
1763205809335912400,12.451912353515626,-1.6199150085449219,-0.5644371509552002,1.4427149295806885
1763205809351842300,12.46784228515625,-2.017012119293213,-0.3864154815673828,1.6366441249847412
1763205809367803000,12.483802978515625,-1.5957794189453125,-0.5282597541809082,1.5002466440200806
1763205809383732700,12.499732666015625,-1.2684082984924316,-0.8334474563598633,1.1138896942138672
1763205809399662600,12.51566259765625,-1.0092878341674805,-0.9121546745300293,0.7632273435592651
1763205809415623200,12.531623046875,-0.8822240829467773,-0.9101707935333252,0.7067598700523376
1763205809431553000,12.547552978515625,-0.8540716171264648,-0.980165958404541,0.49273091554641724
1763205809447513300,12.563513427734375,-1.0844917297363281,-0.9916496276855469,0.09279286861419678
1763205809463443500,12.579443359375,-1.667597770690918,-0.8767414093017578,-0.12931525707244873
1763205809479403800,12.59540380859375,-1.9173707962036133,-0.626983642578125,-0.2185620665550232
1763205809495333600,12.611333740234375,-1.9932947158813477,-0.4163341522216797,-0.17671000957489014
1763205809511294200,12.627294189453124,-1.8658628463745117,-0.20952630043029785,-0.1621915102005005
1763205809527254500,12.643254638671875,-1.6852717399597168,-0.036238908767700195,-0.12077885866165161
1763205809543184400,12.659184326171875,-1.7148919105529785,0.15434765815734863,-0.04285931587219238
1763205809559145000,12.67514501953125,-1.2660799026489258,0.3426172733306885,0.05699950456619263
1763205809575074800,12.69107470703125,-0.41039371490478516,0.3004446029663086,0.21344035863876343
1763205809591035100,12.70703515625,0.006886482238769531,0.21791672706604004,0.1708773374557495
1763205809606995700,12.72299560546875,0.14392471313476562,0.14996671676635742,-0.04532039165496826
1763205809622956000,12.7389560546875,0.32935428619384766,0.04639410972595215,-0.17493462562561035
1763205809638916400,12.754916259765626,0.7003679275512695,0.09150505065917969,-0.04010409116744995
1763205809654877000,12.770876953125,1.0185432434082031,0.19173264503479004,0.23037856817245483
1763205809670806800,12.786806884765625,0.9869251251220703,0.20530104637145996,0.3885877728462219
1763205809686767000,12.80276708984375,0.5466451644897461,0.36161136627197266,0.37898439168930054
1763205809702697200,12.818697265625,0.010081291198730469,0.47559690475463867,0.37614011764526367
1763205809718657500,12.834657470703124,-0.05534076690673828,0.5694499015808105,0.5844818353652954
1763205809734617900,12.850617919921875,0.3632030487060547,0.6274077892303467,0.719596266746521
1763205809750578400,12.866578369140624,0.6187973022460938,0.5768454074859619,0.7563940286636353
1763205809766508300,12.88250830078125,0.49161243438720703,0.46417880058288574,0.7368285655975342
1763205809782468600,12.898468505859375,0.43610572814941406,0.26949572563171387,0.38111746311187744
1763205809798429200,12.91442919921875,0.5881233215332031,0.06506943702697754,0.09733182191848755
1763205809814389500,12.930389404296875,0.8350801467895508,0.05671501159667969,0.30004721879959106
1763205809830350000,12.94635009765625,1.6317949295043945,0.0755155086517334,0.6337767839431763
1763205809846280000,12.962280029296876,2.4252443313598633,-0.011387348175048828,0.5292677879333496
1763205809862209800,12.978209716796876,2.8477954864501953,-0.42748045921325684,0.23147326707839966
1763205809878170400,12.99417041015625,3.1556854248046875,-0.9080328941345215,-0.2552863359451294
1763205809894130700,13.010130615234376,3.4168262481689453,-1.2041071653366089,-0.5114173889160156
1763205809910060500,13.026060546875,3.3382444381713867,-1.5107009410858154,-0.4447157382965088
1763205809926021000,13.042021240234375,3.1190061569213867,-1.5990315675735474,-0.5486140847206116
1763205809941951000,13.057950927734375,2.200747489929199,-1.500867486000061,-0.67161625623703
1763205809957911300,13.073911376953125,0.0742330551147461,-1.170384407043457,-0.862166166305542
1763205809973841200,13.089841064453125,-1.824127197265625,-0.7302403450012207,-1.1832343339920044
1763205809989832200,13.105832275390625,-2.6638283729553223,-0.22559857368469238,-0.9288405179977417
1763205810005792500,13.12179248046875,-2.547755718231201,-0.019959688186645508,-0.7525402307510376
1763205810021722600,13.13772265625,-1.6735901832580566,-0.14597558975219727,-0.674748420715332
1763205810037683000,13.153682861328125,-1.2502202987670898,-0.0801384449005127,-0.3726467490196228
1763205810053643300,13.169643310546874,-0.8934030532836914,0.08771967887878418,0.05357789993286133
1763205810069603800,13.185603759765625,0.37952232360839844,-0.05553126335144043,0.5161997079849243
1763205810085533700,13.20153369140625,1.8262882232666016,-0.27280330657958984,0.6042109131813049
1763205810101494000,13.217493896484376,2.290515899658203,-0.5371270179748535,0.3202684223651886
1763205810117424000,13.233424072265626,2.1639633178710938,-0.8854858875274658,-0.30658066272735596
1763205810133354000,13.24935400390625,1.069748878479004,-1.0622659921646118,-0.6849160194396973
1763205810149344800,13.2653447265625,-0.14400291442871094,-0.9928832054138184,-0.8831993937492371
1763205810165305300,13.281305419921875,-0.5428323745727539,-0.6893324851989746,-0.7706096768379211
1763205810181265700,13.297265625,-0.9776086807250977,-0.40545129776000977,-0.4310346841812134
1763205810197226200,13.313226318359375,-1.4510893821716309,-0.24338555335998535,-0.358188271522522
1763205810213217000,13.329217041015625,-1.6912646293640137,-0.22742700576782227,-0.37727248668670654
1763205810229177600,13.345177490234375,-1.5992560386657715,-0.23272156715393066,-0.46384233236312866
1763205810245107500,13.361107421875,-1.2640495300292969,-0.23259806632995605,-0.3593538999557495
1763205810261067800,13.37706787109375,-0.9473857879638672,-0.06379461288452148,-0.25735795497894287
1763205810276998000,13.392997802734374,-0.8644561767578125,0.032727956771850586,-0.1915830373764038
1763205810292958200,13.408958251953125,-1.1078977584838867,0.13573908805847168,-0.3142492175102234
1763205810308918500,13.42491845703125,-1.0981760025024414,0.16016530990600586,-0.46658700704574585
1763205810324879000,13.440879150390625,-0.563140869140625,0.08476448059082031,-0.5544021129608154
1763205810340839400,13.45683935546875,0.15086078643798828,0.07476162910461426,-0.53659987449646
1763205810356769300,13.472769287109376,0.034801483154296875,0.14922761917114258,-0.38296836614608765
1763205810372729900,13.488729736328125,-0.04160118103027344,0.16347146034240723,-0.5702201128005981
1763205810388690200,13.504690185546876,0.0841531753540039,0.08918571472167969,-0.6391018033027649
1763205810404620000,13.5206201171875,-0.15099430084228516,0.21510720252990723,-0.4909486770629883
1763205810420580600,13.53658056640625,-0.21787548065185547,0.3213474750518799,-0.36686527729034424
1763205810436541000,13.552541015625,0.304168701171875,0.20153498649597168,-0.2797272205352783
1763205810452501500,13.56850146484375,1.200775146484375,0.16589140892028809,-0.3098374009132385
1763205810468492300,13.5844921875,1.3077316284179688,0.27418971061706543,-0.27111393213272095
1763205810484452900,13.600452880859375,0.8464336395263672,0.30077552795410156,-0.23199427127838135
1763205810500382700,13.6163828125,0.685516357421875,0.2774696350097656,-0.06007230281829834
1763205810516343000,13.632343017578124,0.6570758819580078,0.06932973861694336,0.2799091339111328
1763205810532303600,13.6483037109375,0.8895998001098633,-0.008894681930541992,0.9522726535797119
1763205810548294400,13.66429443359375,2.477569580078125,-0.22004151344299316,1.3533650636672974
1763205810564255000,13.6802548828125,3.843997001647949,-0.8120365142822266,1.3770806789398193
1763205810580215300,13.69621533203125,4.063065528869629,-1.5548346042633057,0.8088334798812866
1763205810596145200,13.712145263671875,2.794548988342285,-1.9123715162277222,0.2403375804424286
1763205810612105700,13.728105712890626,1.0676240921020508,-1.7015917301177979,0.11299976706504822
1763205810628035600,13.74403564453125,-0.0943288803100586,-1.3451142311096191,0.43429508805274963
1763205810643996000,13.759995849609375,-0.5171136856079102,-1.10886549949646,0.8329074382781982
1763205810659956500,13.77595654296875,-0.3687410354614258,-0.8945369720458984,1.0061593055725098
1763205810675916800,13.791916748046875,-0.031856536865234375,-1.0704443454742432,0.870720386505127
1763205810691877400,13.80787744140625,-0.0030803680419921875,-1.1577335596084595,0.6451449990272522
1763205810707837700,13.823837646484375,0.021935462951660156,-0.815570592880249,0.6294952630996704
1763205810723798000,13.839798095703125,-0.0721588134765625,-0.5735092163085938,0.6797520518302917
1763205810739789000,13.8557890625,-0.45453548431396484,-0.26436686515808105,0.5972365736961365
1763205810755719000,13.871718994140625,-1.077082633972168,0.08436894416809082,0.4918893575668335
1763205810771679500,13.887679443359374,-1.6483392715454102,0.27247095108032227,0.3165954649448395
1763205810787609300,13.903609375,-1.5218663215637207,0.19035649299621582,-0.001210540533065796
1763205810803569700,13.919569580078125,-0.8374481201171875,0.031919240951538086,-0.1432199776172638
1763205810819499500,13.93549951171875,0.04166221618652344,-0.05893731117248535,-0.11828956007957458
1763205810835460000,13.951460205078124,-0.1673421859741211,0.13178086280822754,0.1571647971868515
1763205810851390000,13.967389892578124,-0.7980833053588867,0.476851224899292,0.472781777381897
1763205810867350500,13.9833505859375,-1.0497207641601562,0.6326091289520264,0.8069115877151489
1763205810883280400,13.9992802734375,-0.743408203125,0.5919363498687744,0.7339825630187988
1763205810899240700,14.01524072265625,-0.41051483154296875,0.34548401832580566,0.3968487083911896
1763205810915170600,14.031170654296876,-0.3038759231567383,0.08111572265625,0.01995062828063965
1763205810931131100,14.047131103515625,-0.23984336853027344,0.01801753044128418,-0.21315336227416992
1763205810947091500,14.063091552734376,-0.2759084701538086,0.05654478073120117,-0.13050872087478638
1763205810963021300,14.079021240234376,0.19145774841308594,0.11749911308288574,0.06560415029525757
1763205810978982000,14.09498193359375,0.2302570343017578,0.23195552825927734,0.2233339548110962
1763205810994942200,14.110942138671875,-0.03658294677734375,0.23335671424865723,0.08582168817520142
1763205811010872000,14.1268720703125,-0.22877120971679688,0.3403658866882324,0.17718321084976196
1763205811026832600,14.14283251953125,-0.2592592239379883,0.6169521808624268,0.23084649443626404
1763205811042762500,14.158762451171874,-0.17181396484375,0.7687549591064453,0.17637693881988525
1763205811058722800,14.174722900390625,-0.05871295928955078,0.7117490768432617,0.23623454570770264
1763205811074653000,14.19065283203125,0.07204151153564453,0.6702523231506348,0.33253365755081177
1763205811090613200,14.20661328125,0.5603055953979492,0.4439377784729004,0.29765889048576355
1763205811106543000,14.222543212890624,1.3989019393920898,0.15834617614746094,0.28359174728393555
1763205811122473000,14.238472900390626,2.3807754516601562,-0.07702207565307617,0.2216530442237854
1763205811138433500,14.25443359375,3.1949071884155273,-0.48261022567749023,0.05288505554199219
1763205811154363400,14.27036328125,3.7698240280151367,-0.9341635704040527,-0.3185550570487976
1763205811170323700,14.28632373046875,3.999720573425293,-1.2326369285583496,-0.3909594416618347
1763205811186284300,14.3022841796875,3.4931211471557617,-1.5703696012496948,-0.41286373138427734
1763205811202214100,14.318214111328125,2.258357048034668,-1.4370622634887695,-0.5837420225143433
1763205811218174500,14.334174560546876,0.2969818115234375,-1.1513020992279053,-0.8825939893722534
1763205811234104600,14.3501044921875,-1.2069635391235352,-1.0610501766204834,-1.3286806344985962
1763205811250065000,14.36606494140625,-1.8811116218566895,-0.9727580547332764,-1.445106029510498
1763205811265994800,14.381994873046875,-1.8184971809387207,-0.9900617599487305,-1.460555911064148
1763205811281955300,14.397955322265625,-1.184199333190918,-1.1599302291870117,-1.3363174200057983
1763205811297885200,14.41388525390625,-0.8750286102294922,-0.999467134475708,-1.02586030960083
1763205811313815000,14.42981494140625,-1.1515798568725586,-0.5186512470245361,-0.4659092426300049
1763205811329775600,14.445775634765624,-1.3197178840637207,-0.20157361030578613,0.14078861474990845
1763205811345736000,14.46173583984375,-0.4507150650024414,-0.4988901615142822,0.1949799656867981
1763205811361665800,14.477665771484375,0.8970146179199219,-1.1348968744277954,-0.1526523232460022
1763205811377626400,14.49362646484375,2.241940498352051,-1.5986844301223755,-0.5532869100570679
1763205811393556200,14.50955615234375,2.742311477661133,-1.8129764795303345,-0.7618070244789124
1763205811409516500,14.5255166015625,1.3150758743286133,-1.3521393537521362,-0.7297087907791138
1763205811425446400,14.5414462890625,-0.3073844909667969,-0.7611091136932373,-0.522137463092804
1763205811441407000,14.557406982421876,-1.6974477767944336,-0.24671626091003418,-0.12504982948303223
1763205811457367300,14.5733671875,-2.561772346496582,0.16795849800109863,0.1403353214263916
1763205811473297200,14.589297119140625,-2.9078826904296875,0.29113030433654785,0.0374109148979187
1763205811489257700,14.6052578125,-2.2636499404907227,0.10007667541503906,-0.43560564517974854
1763205811505218000,14.621218017578125,-1.2045869827270508,-0.04532289505004883,-0.5765629410743713
1763205811521178600,14.6371787109375,-0.47782039642333984,-0.035031795501708984,-0.49818551540374756
1763205811537139000,14.653138916015624,-0.35869312286376953,0.14797353744506836,-0.32661116123199463
1763205811553099300,14.669099365234375,-0.8113555908203125,0.4155116081237793,-0.18411481380462646
1763205811569059800,14.685059814453124,-1.2060632705688477,0.689990758895874,0.0020450949668884277
1763205811584989700,14.70098974609375,-0.559478759765625,0.7419519424438477,-0.031394243240356445
1763205811600950000,14.716949951171875,0.35562896728515625,0.5387403964996338,-0.31903862953186035
1763205811616880000,14.732880126953125,0.7135467529296875,0.35128164291381836,-0.5298633575439453
1763205811632840400,14.74884033203125,0.8946332931518555,0.12783336639404297,-0.5026517510414124
1763205811648770300,14.764770263671876,1.3118600845336914,-0.03819680213928223,-0.4507731795310974
1763205811664731000,14.78073095703125,1.2175273895263672,0.13802862167358398,-0.21006155014038086
1763205811680660700,14.79666064453125,0.2401142120361328,0.3999152183532715,0.06068769097328186
1763205811696621000,14.81262109375,-0.27962398529052734,0.6017298698425293,0.004624724388122559
1763205811712581600,14.82858154296875,-0.05510997772216797,0.5544681549072266,-0.09873118996620178
1763205811728511500,14.844511474609375,0.8394088745117188,0.25650906562805176,-0.023724257946014404
1763205811744471800,14.860471923828126,1.5850629806518555,0.09293651580810547,-0.053031206130981445
1763205811760432400,14.876432373046875,2.138042449951172,-0.15462541580200195,-0.17079085111618042
1763205811776392700,14.892392822265625,2.44283390045166,-0.4808626174926758,-0.069528728723526
1763205811792322600,14.908322509765625,2.6615304946899414,-0.8255441188812256,0.3595972955226898
1763205811808283100,14.924283203125,3.587474822998047,-1.3301829099655151,0.6280597448348999
1763205811824213000,14.940212890625,4.6118621826171875,-1.7541310787200928,0.6125310063362122
1763205811840173300,14.95617333984375,4.219999313354492,-1.9082447290420532,0.3561924397945404
1763205811856103400,14.972103515625,2.534956932067871,-1.6696888208389282,0.25095000863075256
1763205811872063700,14.988063720703124,1.1167659759521484,-1.4084628820419312,0.5395053625106812
1763205811887993600,15.00399365234375,0.22175884246826172,-1.0305501222610474,1.195199728012085
1763205811903923500,15.01992333984375,-0.33195972442626953,-0.7983782291412354,1.7088582515716553
1763205811919884000,15.035884033203125,-0.5449600219726562,-0.824986457824707,1.6623313426971436
1763205811935814000,15.05181396484375,-0.6379594802856445,-1.110566258430481,1.2425639629364014
1763205811951774200,15.067774169921876,-0.15491676330566406,-1.2621452808380127,0.7205692529678345
1763205811967704300,15.083704345703126,0.16674232482910156,-1.0790666341781616,0.659564733505249
1763205811983664600,15.09966455078125,0.06781673431396484,-0.8074500560760498,0.6973961591720581
1763205811999594500,15.115594482421875,-0.5660324096679688,-0.5309948921203613,0.5385802388191223
1763205812015555000,15.13155517578125,-1.102548599243164,-0.42221975326538086,0.2913829982280731
1763205812031485000,15.14748486328125,-1.5966510772705078,-0.3468048572540283,0.07374781370162964
1763205812047445200,15.1634453125,-1.861238956451416,-0.3479197025299072,-0.1365387737751007
1763205812063375000,15.179375,-1.5069756507873535,-0.37145256996154785,-0.2226502001285553
1763205812079335700,15.195335693359375,-0.9576148986816406,-0.30812597274780273,-0.03341931104660034
1763205812095265500,15.211265625,-0.96441650390625,-0.027017831802368164,0.412553071975708
1763205812111226000,15.22722607421875,-1.0938692092895508,0.2204124927520752,0.6410480737686157
1763205812127186400,15.2431865234375,-1.1723651885986328,0.39949607849121094,0.8236709833145142
1763205812143146800,15.259146728515624,-1.3947772979736328,0.4896814823150635,0.8630203008651733
1763205812159076900,15.275076904296874,-1.344594955444336,0.424518346786499,0.6818840503692627
1763205812175067600,15.291067626953126,-0.8555593490600586,0.07406449317932129,0.26857519149780273
1763205812191028200,15.3070283203125,-0.31934261322021484,-0.26667046546936035,-0.1483789086341858
1763205812206988500,15.322988525390626,0.0027036666870117188,-0.2902216911315918,-0.16494220495224
1763205812222948900,15.338948974609375,-0.059268951416015625,0.04768061637878418,0.2587070167064667
1763205812238879000,15.35487890625,-0.39873409271240234,0.4558231830596924,0.3427239656448364
1763205812254839300,15.37083935546875,-0.7095565795898438,0.5331494808197021,0.0780535340309143
1763205812270799600,15.386799560546875,-0.6428403854370117,0.49535298347473145,-0.16411322355270386
1763205812286729700,15.402729736328125,-0.44715118408203125,0.5819103717803955,-0.08535951375961304
1763205812302690000,15.41868994140625,-0.1487445831298828,0.6132810115814209,0.06485414505004883
1763205812318650400,15.434650390625,0.4965524673461914,0.46435022354125977,0.2626030445098877
1763205812334580500,15.45058056640625,1.480818748474121,0.5626888275146484,0.3849799335002899
1763205812350540800,15.466540771484375,2.6354169845581055,0.27410411834716797,0.690136194229126
1763205812366470700,15.482470703125,3.454631805419922,-0.05172610282897949,0.4386152923107147
1763205812382431200,15.49843115234375,3.4952783584594727,-0.3018472194671631,-0.09570789337158203
1763205812398391600,15.5143916015625,2.552692413330078,-0.5522322654724121,-0.5576052069664001
1763205812414321400,15.5303212890625,1.980545997619629,-0.7684710025787354,-1.0757380723953247
1763205812430282000,15.546281982421876,1.7316274642944336,-0.9480752944946289,-1.00545072555542
1763205812446211800,15.5622119140625,1.8543376922607422,-1.100792646408081,-0.8353658318519592
1763205812462172200,15.578172119140625,1.451401710510254,-1.1439905166625977,-1.1144918203353882
1763205812478132700,15.5941328125,-0.35495853424072266,-0.8931591510772705,-1.454291820526123
1763205812494093000,15.610093017578125,-1.5935940742492676,-0.48718929290771484,-1.4059066772460938
1763205812510023000,15.62602294921875,-2.500699520111084,-0.1529524326324463,-1.310467004776001
1763205812525983500,15.6419833984375,-1.9220080375671387,-0.35043787956237793,-1.3237241506576538
1763205812541943800,15.65794384765625,-0.5541439056396484,-0.8490462303161621,-0.6492425203323364
1763205812557873700,15.673873779296875,0.8459672927856445,-0.995464563369751,0.05861324071884155
1763205812573834200,15.689834228515625,2.633589744567871,-1.226433277130127,0.46011942625045776
1763205812589764000,15.70576416015625,3.3737611770629883,-1.5702470541000366,0.3992704153060913
1763205812605724400,15.721724365234374,2.9154396057128906,-1.817498803138733,-0.2765556573867798
1763205812621654500,15.737654541015624,1.2480974197387695,-1.6060681343078613,-0.3696215748786926
1763205812637614800,15.75361474609375,-0.4071779251098633,-1.1261098384857178,-0.17540228366851807
1763205812653575200,15.7695751953125,-1.8114628791809082,-0.6976590156555176,-0.00031363964080810547
1763205812669535700,15.78553564453125,-2.705252170562744,-0.45150232315063477,-0.1736432909965515
1763205812685496000,15.80149609375,-3.0751070976257324,-0.34655117988586426,-0.3845292329788208
1763205812701426000,15.817426025390626,-2.8267250061035156,-0.33666086196899414,-0.45786064863204956
1763205812717386500,15.833386474609375,-2.163999080657959,-0.2760467529296875,-0.3912624716758728
1763205812733346800,15.849346923828126,-1.7171907424926758,-0.13115525245666504,-0.32659876346588135
1763205812749276700,15.865276611328126,-1.4524383544921875,0.054879188537597656,-0.19068211317062378
1763205812765237200,15.8812373046875,-1.4233336448669434,0.2532641887664795,-0.19491177797317505
1763205812781167000,15.8971669921875,-1.2527894973754883,0.3640732765197754,-0.45018690824508667
1763205812797097000,15.913096923828125,-0.7465381622314453,0.40322351455688477,-0.6637449264526367
1763205812813057500,15.9290576171875,-0.026927947998046875,0.31707286834716797,-0.9392091631889343
1763205812829017900,15.945017822265624,0.5440034866333008,0.3230419158935547,-1.0096793174743652
1763205812844978400,15.960978515625,0.9411048889160156,0.4929831027984619,-0.6577697396278381
1763205812860938800,15.976938720703124,1.2726125717163086,0.6765239238739014,-0.32575011253356934
1763205812876899000,15.992899169921875,1.2541780471801758,0.792151927947998,-0.34270310401916504
1763205812892859600,16.008859619140626,0.8862819671630859,0.8259077072143555,-0.40793097019195557
1763205812908820000,16.024820068359375,0.5735645294189453,0.8354618549346924,-0.414975106716156
1763205812924811000,16.04081103515625,0.20172595977783203,0.9514257907867432,-0.2829592227935791
1763205812940801800,16.0568017578125,0.06466293334960938,0.9418087005615234,-0.1254892349243164
1763205812956762400,16.072762451171876,0.9025945663452148,0.6209025382995605,-0.11075296998023987
1763205812972722700,16.08872265625,1.8436479568481445,0.24447226524353027,-0.0274350643157959
1763205812988683300,16.104683349609374,1.3756980895996094,0.21637392044067383,-0.21683749556541443
1763205813004613000,16.120613037109376,0.20407867431640625,0.30172204971313477,-0.3537355363368988
1763205813020573400,16.136573486328125,0.4207038879394531,0.324537992477417,-0.3722321689128876
1763205813036503300,16.15250341796875,0.6505708694458008,0.23934721946716309,-0.08392813801765442
1763205813052463900,16.1684638671875,0.781590461730957,-0.13788414001464844,0.1963980495929718
1763205813068393700,16.184393798828125,1.703348159790039,-0.3279237747192383,0.8894388675689697
1763205813084354000,16.20035400390625,3.9208908081054688,-0.8752394914627075,1.3863478899002075
1763205813100284200,16.2162841796875,6.231686592102051,-1.9244842529296875,1.143197774887085
1763205813116244500,16.232244384765625,6.627713203430176,-2.558669328689575,0.23715294897556305
1763205813132174300,16.24817431640625,4.212841987609863,-2.78006911277771,-0.2196868658065796
1763205813148135000,16.264135009765624,1.1353139877319336,-2.1381800174713135,-0.1224910169839859
1763205813164095200,16.28009521484375,-1.1392145156860352,-1.4943103790283203,0.314810186624527
1763205813180055800,16.296055908203126,-2.193014144897461,-1.2510364055633545,0.6008615493774414
1763205813196046600,16.312046630859374,-1.843562126159668,-1.17092764377594,0.8481469750404358
1763205813212007200,16.328007080078127,-1.2685480117797852,-0.9788254499435425,1.0795060396194458
1763205813227967500,16.343967529296876,-0.9755182266235352,-0.6848857402801514,0.9407622814178467
1763205813243927800,16.359927734375,-1.2212438583374023,-0.5001375675201416,0.8569010496139526
1763205813259858000,16.37585791015625,-1.6304211616516113,-0.3481450080871582,0.6070020198822021
1763205813275818200,16.391818359375,-1.9001851081848145,-0.12822914123535156,0.44896572828292847
1763205813291778600,16.407778564453125,-1.563150405883789,-0.0016541481018066406,0.412855863571167
1763205813307739100,16.4237392578125,-0.9577398300170898,-0.08737397193908691,0.3883630633354187
1763205813323669000,16.4396689453125,-0.5900745391845703,-0.2884221076965332,0.14102788269519806
1763205813339629300,16.45562939453125,-0.5897817611694336,-0.45325231552124023,-0.0850597620010376
1763205813355559400,16.471559326171874,-0.4859037399291992,-0.38497471809387207,0.046223998069763184
1763205813371519700,16.487519775390624,-0.1790323257446289,-0.18483877182006836,0.3625752031803131
1763205813387449600,16.50344970703125,-0.4245166778564453,0.011953115463256836,0.5272881388664246
1763205813403410200,16.51941015625,-1.0226449966430664,0.13538169860839844,0.5420478582382202
1763205813419340000,16.535340087890624,-1.489112377166748,0.12393617630004883,0.2832605540752411
1763205813435300400,16.55130029296875,-1.5003581047058105,0.09168481826782227,0.1047450602054596
1763205813451230200,16.567230224609375,-1.087752342224121,0.10789680480957031,0.1353108286857605
1763205813467190800,16.583190673828124,-0.858154296875,0.13375282287597656,0.23965096473693848
1763205813483120600,16.59912060546875,-0.5732336044311523,0.17160725593566895,0.23805943131446838
1763205813499111700,16.615111572265626,-0.0997323989868164,0.2615077495574951,0.1814771294593811
1763205813515072000,16.631072021484375,-0.5095844268798828,0.5126523971557617,0.20479685068130493
1763205813531032600,16.647032470703124,-1.2636098861694336,0.889883279800415,0.24521911144256592
1763205813546993000,16.662992919921876,-1.3695087432861328,1.2055773735046387,0.505469560623169
1763205813562922800,16.6789228515625,-0.6585550308227539,1.172093391418457,0.3590507209300995
1763205813578883300,16.69488330078125,0.08261585235595703,0.9401381015777588,0.31255316734313965
1763205813594843600,16.71084375,0.7359485626220703,0.5742979049682617,0.21088272333145142
1763205813610773500,16.7267734375,1.847677230834961,0.44501686096191406,0.3025944232940674
1763205813626734000,16.742734130859375,2.8518714904785156,0.3501720428466797,0.6151341199874878
1763205813642664000,16.758663818359373,3.7497243881225586,0.21769380569458008,0.24440187215805054
1763205813658593800,16.77459375,3.753106117248535,-0.09662342071533203,-0.16584616899490356
1763205813674554000,16.79055419921875,3.2384557723999023,-0.46562743186950684,-0.39709633588790894
1763205813690514700,16.8065146484375,3.144442558288574,-0.747093915939331,-0.46340179443359375
1763205813706444500,16.822444580078123,3.490178108215332,-1.2229653596878052,-0.5035369396209717
1763205813722435600,16.838435546875,3.0851831436157227,-1.5529093742370605,-0.6082519888877869
1763205813738396000,16.85439599609375,1.1158533096313477,-1.3251099586486816,-0.8831688761711121
1763205813754356200,16.870356201171877,-0.7052001953125,-1.1100714206695557,-1.4805498123168945
1763205813770286300,16.886286376953127,-1.760871410369873,-1.0578017234802246,-1.858288049697876
1763205813786246700,16.90224658203125,-1.842219352722168,-0.9039511680603027,-1.803924560546875
1763205813802176500,16.918176513671874,-0.42360687255859375,-1.0329242944717407,-1.0829408168792725
1763205813818137000,16.93413720703125,0.9797754287719727,-1.0666956901550293,-0.19459372758865356
1763205813834067000,16.95006689453125,2.047914505004883,-1.0810211896896362,0.0965462327003479
1763205813850027300,16.96602734375,2.4206981658935547,-1.2153761386871338,0.08490955829620361
1763205813865987800,16.98198779296875,2.3055334091186523,-1.4986047744750977,-0.1028398871421814
1763205813881948200,16.9979482421875,1.752272605895996,-1.5130016803741455,-0.13072681427001953
1763205813897908700,17.01390869140625,0.5805397033691406,-1.1807576417922974,-0.034323155879974365
1763205813913869000,17.029869140625,-0.7944622039794922,-0.7580277919769287,0.09248870611190796
1763205813929799000,17.045798828125,-1.5801444053649902,-0.4861259460449219,0.1238260269165039
1763205813945759500,17.061759521484376,-1.9683380126953125,-0.4860270023345947,0.039584219455718994
1763205813961689300,17.077689453125,-2.261990547180176,-0.4885861873626709,-0.05354917049407959
1763205813977649700,17.093649658203127,-2.251591205596924,-0.36408066749572754,-0.08152574300765991
1763205813993579500,17.10957958984375,-2.168631076812744,-0.1629352569580078,0.15894949436187744
1763205814009509600,17.125509521484375,-1.870884895324707,-0.011297225952148438,0.3499094843864441
1763205814025470000,17.141469970703124,-1.4581871032714844,0.005992412567138672,0.29678988456726074
1763205814041399800,17.15739990234375,-1.0375261306762695,-0.217193603515625,-0.10406041145324707
1763205814057360400,17.1733603515625,-0.5504379272460938,-0.3200521469116211,-0.28947144746780396
1763205814073290200,17.189290283203125,-0.58294677734375,-0.1176292896270752,-0.2379503846168518
1763205814089250600,17.20525048828125,-0.5961647033691406,0.14512133598327637,-0.20426517724990845
1763205814105211100,17.221211181640626,-0.5137968063354492,0.24212431907653809,-0.1455971598625183
1763205814121202000,17.237201904296874,-0.24439525604248047,0.28824806213378906,-0.228060781955719
1763205814137162500,17.25316259765625,-0.17271804809570312,0.3907463550567627,-0.379743754863739
1763205814153092400,17.26909228515625,-0.3242511749267578,0.5158665180206299,-0.4090328812599182
1763205814169052700,17.285052734375,-0.1691761016845703,0.5006833076477051,-0.42360907793045044
1763205814185013200,17.30101318359375,0.25300025939941406,0.5281462669372559,-0.33220022916793823
1763205814200943000,17.316943115234373,0.2203216552734375,0.5482659339904785,-0.23843348026275635
1763205814216903400,17.3329033203125,0.36772727966308594,0.5328378677368164,-0.1802549958229065
1763205814232861700,17.34886181640625,1.0729742050170898,0.38936948776245117,-0.21630984544754028
1763205814248824300,17.36482421875,1.4395990371704102,0.3372061252593994,-0.38999032974243164
1763205814264815400,17.3808154296875,1.026555061340332,0.13991522789001465,-0.2608497738838196
1763205814280775700,17.396775634765625,1.5234003067016602,-0.16556644439697266,-0.2968108654022217
1763205814296736300,17.412736328125,2.157345771789551,-0.38559460639953613,-0.1498965620994568
1763205814312666000,17.428666015625,2.4244937896728516,-0.5779321193695068,0.2217639982700348
1763205814328626400,17.44462646484375,2.4926366806030273,-0.5607907772064209,0.8478628396987915
1763205814344587000,17.4605869140625,2.824435234069824,-0.6383564472198486,1.2409753799438477
1763205814360516900,17.476516845703124,3.2815065383911133,-1.084559679031372,1.1865119934082031
1763205814376477200,17.492477294921876,3.379610061645508,-1.4731483459472656,0.8955996036529541
1763205814392407000,17.508406982421874,2.0107908248901367,-1.4167677164077759,0.6544301509857178
1763205814408367600,17.52436767578125,0.42688846588134766,-1.2696237564086914,0.5216259956359863
1763205814424328000,17.540327880859376,-0.4730215072631836,-1.2662131786346436,0.5866084694862366
1763205814440257800,17.5562578125,-0.5829973220825195,-1.3472850322723389,0.8092582821846008
1763205814456218400,17.57221826171875,-0.6148233413696289,-1.314237117767334,1.1312437057495117
1763205814472178700,17.5881787109375,0.17015743255615234,-1.3657090663909912,1.0544226169586182
1763205814488139300,17.60413916015625,0.8673276901245117,-1.4139453172683716,1.097543716430664
1763205814504069000,17.620069091796875,0.9548130035400391,-1.2551705837249756,1.0565600395202637
1763205814520029400,17.636029541015624,0.7087078094482422,-0.9756734371185303,1.0086489915847778
1763205814535959300,17.651959228515626,0.023439407348632812,-0.6880683898925781,0.9854437112808228
1763205814551919900,17.667919921875,-0.9060564041137695,-0.2829873561859131,0.9432017803192139
1763205814567849700,17.683849609375,-1.5006275177001953,-0.1852283477783203,0.6985087394714355
1763205814583810000,17.69981005859375,-1.6820073127746582,-0.18440747261047363,0.36409714818000793
1763205814599740200,17.715740234375,-1.7221126556396484,-0.24570178985595703,0.19941648840904236
1763205814615700500,17.731700439453125,-1.590552806854248,-0.2609398365020752,0.06586182117462158
1763205814631630300,17.74763037109375,-1.013594627380371,-0.2458796501159668,0.10450434684753418
1763205814647591000,17.7635908203125,-0.9295682907104492,-0.13452792167663574,0.38545817136764526
1763205814663520800,17.779520751953125,-1.3748741149902344,0.18874597549438477,0.6084820032119751
1763205814679481000,17.795481201171874,-1.7315864562988281,0.41540980339050293,0.7765552997589111
1763205814695441700,17.811441650390623,-1.6326985359191895,0.49646639823913574,0.7049332857131958
1763205814711371500,17.82737158203125,-0.9101028442382812,0.4257972240447998,0.48530083894729614
1763205814727331800,17.843331787109374,-0.1361837387084961,0.1388719081878662,0.23413825035095215
1763205814743262000,17.859261962890624,0.34419918060302734,-0.11179685592651367,0.059432148933410645
1763205814759222300,17.87522216796875,0.40118980407714844,-0.22750329971313477,0.028749167919158936
1763205814775152000,17.891152099609375,0.1431894302368164,0.03979659080505371,0.11823481321334839
1763205814791112700,17.90711279296875,-0.27342700958251953,0.43062281608581543,0.19605416059494019
1763205814807042600,17.92304248046875,-0.6387300491333008,0.691004753112793,0.15171629190444946
1763205814823003000,17.9390029296875,-0.4469947814941406,0.7806370258331299,0.049521446228027344
1763205814838932700,17.9549326171875,-0.3219156265258789,0.8319647312164307,0.16574668884277344
1763205814854893300,17.970893310546874,-0.26369190216064453,0.6876888275146484,0.2631343603134155
1763205814870823200,17.9868232421875,0.5420141220092773,0.45985937118530273,0.5424277782440186
1763205814886783500,18.002783447265625,1.2178277969360352,0.26102614402770996,0.36155426502227783
1763205814902713600,18.018713623046875,1.5989551544189453,-0.03719377517700195,0.11164289712905884
1763205814918674000,18.034673828125,2.6308183670043945,-0.2932114601135254,-0.08905816078186035
1763205814934603800,18.050603759765625,3.2167835235595703,-0.45680737495422363,-0.10817956924438477
1763205814950551300,18.06655126953125,3.0853452682495117,-0.4972248077392578,-0.1741788387298584
1763205814966494200,18.082494140625,3.0945310592651367,-0.7470405101776123,-0.4991269111633301
1763205814982454500,18.09845458984375,3.32684326171875,-1.036747932434082,-0.5600085258483887
1763205814998384400,18.11438427734375,3.090010643005371,-1.2903958559036255,-0.4593251943588257
1763205815014314500,18.130314453125,1.8988018035888672,-1.1916890144348145,-0.5909054279327393
1763205815030274800,18.14627490234375,0.26781272888183594,-0.7117159366607666,-0.6791071891784668
1763205815046204700,18.16220458984375,-1.1351385116577148,-0.5764245986938477,-0.8199268579483032
1763205815062165200,18.178165283203125,-1.926518440246582,-0.2902407646179199,-0.83637535572052
1763205815078095000,18.19409521484375,-1.5761475563049316,-0.32582592964172363,-0.6328870058059692
1763205815094025000,18.21002490234375,-0.4971590042114258,-0.6297998428344727,-0.3123617172241211
1763205815109981200,18.225981201171876,-0.141510009765625,-0.5926594734191895,0.14744985103607178
1763205815125915400,18.241915283203124,-0.11892986297607422,-0.4763057231903076,0.4698011875152588
1763205815141875700,18.257875732421876,0.6265878677368164,-0.5249919891357422,0.692186713218689
1763205815157805600,18.2738056640625,1.6245832443237305,-0.943016767501831,0.5000094175338745
1763205815173766100,18.28976611328125,1.8087825775146484,-1.2435919046401978,0.19684123992919922
1763205815189696000,18.305696044921874,0.9976396560668945,-1.525015950202942,-0.24142110347747803
1763205815205656300,18.32165625,-0.2625560760498047,-1.3903324604034424,-0.5947989225387573
1763205815221586400,18.33758642578125,-1.7232418060302734,-0.8218652009963989,-0.3125588893890381
1763205815237516300,18.353516357421874,-2.6123909950256348,-0.17214560508728027,0.10209310054779053
1763205815253476600,18.3694765625,-3.0638203620910645,0.19852209091186523,0.5806598663330078
1763205815269406500,18.385406494140625,-3.1365256309509277,0.32284069061279297,0.437347412109375
1763205815285367000,18.401366943359374,-2.59975528717041,0.13884305953979492,0.060501694679260254
1763205815301297000,18.417296875,-1.746009349822998,-0.059935808181762695,-0.20858031511306763
1763205815317257200,18.43325732421875,-1.2148494720458984,0.013476848602294922,-0.3470589518547058
1763205815333187300,18.449187255859375,-0.7146329879760742,0.09183144569396973,-0.41066741943359375
1763205815349147600,18.465147705078124,-0.33938121795654297,0.22632861137390137,-0.3658837080001831
1763205815365077500,18.481077392578126,-0.26802921295166016,0.3777134418487549,-0.1940709948539734
1763205815381038000,18.4970380859375,-0.028446197509765625,0.47235679626464844,-0.29451602697372437
1763205815396968000,18.512968017578125,0.5090188980102539,0.3961193561553955,-0.5733903646469116
1763205815412928300,18.52892822265625,0.709996223449707,0.28272485733032227,-0.7491667866706848
1763205815428574700,18.54457470703125,0.40937137603759766,0.42804598808288574,-0.7825138568878174
1763205815444504600,18.560504638671876,-0.017635345458984375,0.6593713760375977,-0.5040213465690613
1763205815460465000,18.57646484375,-0.2818126678466797,0.9272811412811279,-0.2891746759414673
1763205815476394800,18.592394775390623,-0.36685657501220703,1.066145658493042,-0.27018338441848755
1763205815492355300,18.608355224609376,-0.1387615203857422,0.9753506183624268,-0.2875434160232544
1763205815508285200,18.62428515625,0.2832021713256836,0.760042667388916,-0.15448439121246338
1763205815524245500,18.64024560546875,0.8053855895996094,0.4711029529571533,0.10973778367042542
1763205815540175600,18.656175537109377,1.0508203506469727,0.2763087749481201,-0.03693121671676636
1763205815556136000,18.672135986328126,0.8331289291381836,0.0803537368774414,-0.15188682079315186
1763205815572065800,18.688065673828124,1.7040767669677734,-0.14324402809143066,-0.32857370376586914
1763205815587995600,18.70399560546875,2.733973503112793,-0.23749613761901855,-0.08478251099586487
1763205815603956200,18.719956298828127,3.086073875427246,-0.37103939056396484,0.4513190984725952
1763205815619886000,18.735885986328125,3.2555274963378906,-0.618239164352417,0.9627656936645508
1763205815635846400,18.751846435546874,3.8827877044677734,-0.8829195499420166,1.3949424028396606
1763205815651776500,18.767776611328124,4.707181930541992,-1.3793284893035889,1.1482716798782349
1763205815667706400,18.783706298828125,3.946427345275879,-1.658598780632019,0.7390931844711304
1763205815683666700,18.799666748046874,2.268827438354492,-1.5983786582946777,0.2772718071937561
1763205815699596500,18.815596435546876,1.14581298828125,-1.4188231229782104,0.32133665680885315
1763205815715557000,18.83155712890625,0.38782691955566406,-1.2533687353134155,0.6908808350563049
1763205815731487000,18.847487060546875,0.0655679702758789,-1.2879294157028198,0.9114663600921631
1763205815747447300,18.863447265625,-0.16701030731201172,-1.2355871200561523,1.0121930837631226
1763205815763377400,18.87937744140625,0.03320598602294922,-1.1866567134857178,0.9893184900283813
1763205815779337700,18.895337646484375,0.3138618469238281,-1.0876327753067017,0.9168908596038818
1763205815795267600,18.911267578125,-0.013710975646972656,-0.8567737340927124,0.8532284498214722
1763205815811197700,18.92719775390625,-0.7850151062011719,-0.4529547691345215,0.8887561559677124
1763205815827158000,18.943157958984376,-1.3499631881713867,-0.1009836196899414,0.9235173463821411
1763205815843088000,18.959087890625,-1.7807326316833496,0.15268683433532715,0.7467746734619141
1763205815859048400,18.97504833984375,-1.9085464477539062,0.042861223220825195,0.3774455189704895
1763205815874978300,18.990978271484376,-1.506110668182373,-0.16941332817077637,0.0360395610332489
1763205815890938600,19.006938720703126,-1.138336181640625,-0.20882320404052734,-0.14298003911972046
1763205815906868500,19.022868408203124,-1.1215324401855469,-0.1434767246246338,-0.15833282470703125
1763205815922829000,19.0388291015625,-1.4716296195983887,0.10930085182189941,0.037760257720947266
1763205815938759000,19.054759033203126,-1.712799072265625,0.3427155017852783,0.21376293897628784
1763205815954688800,19.070688720703124,-1.6263437271118164,0.3696475028991699,0.39959973096847534
1763205815970649300,19.0866494140625,-1.3850317001342773,0.437669038772583,0.6480145454406738
1763205815986579200,19.1025791015625,-0.6040191650390625,0.23328924179077148,0.2795853316783905
1763205816002539500,19.11853955078125,0.14854812622070312,-0.22599053382873535,-0.22889405488967896
1763205816018469400,19.134469482421874,0.25252723693847656,-0.5435302257537842,-0.5756353735923767
1763205816034430000,19.150429931640623,-0.11690711975097656,-0.49955320358276367,-0.6177369356155396
1763205816050359800,19.16635986328125,-0.4484367370605469,-0.1758558750152588,-0.2127361297607422
1763205816066320100,19.182320068359374,-0.3737220764160156,0.10714149475097656,0.02329707145690918
1763205816082250200,19.198250244140624,-0.5676784515380859,0.22265243530273438,-0.086952805519104
1763205816098210600,19.21421044921875,-0.544825553894043,0.2904634475708008,-0.31530117988586426
1763205816114140400,19.230140380859375,-0.40123939514160156,0.4122962951660156,-0.4116218090057373
1763205816130070300,19.2460703125,-0.4907064437866211,0.5699429512023926,-0.34420454502105713
1763205816146030800,19.26203076171875,-0.6134347915649414,0.7604482173919678,0.10254085063934326
1763205816161960700,19.277960693359375,0.3424654006958008,0.7860875129699707,0.48120826482772827
1763205816177921000,19.293921142578125,0.6323347091674805,0.9008495807647705,0.5131813287734985
1763205816193851100,19.30985107421875,0.8884592056274414,0.8300981521606445,0.36653292179107666
1763205816209811500,19.3258115234375,2.221925735473633,0.4386317729949951,0.007588744163513184
1763205816225741300,19.3417412109375,3.6187400817871094,-0.016651391983032227,-0.24165809154510498
1763205816241702000,19.357701904296874,4.91847038269043,-0.597968578338623,-0.3509136438369751
1763205816257631700,19.3736318359375,5.0807647705078125,-0.8004932403564453,-0.23001158237457275
1763205816273592000,19.389592041015625,4.158127784729004,-1.0704127550125122,0.03389793634414673
1763205816289522200,19.405522216796875,2.9554262161254883,-1.2716431617736816,-0.1448802947998047
1763205816305482500,19.421482421875,1.0747699737548828,-0.9419691562652588,-0.4420219659805298
1763205816321412400,19.437412353515626,-0.9434394836425781,-0.7483482360839844,-0.7724632024765015
1763205816337342200,19.45334228515625,-2.5295000076293945,-0.5197434425354004,-1.0558130741119385
1763205816353302800,19.469302734375,-2.878471851348877,-0.478024959564209,-1.4153803586959839
1763205816369232600,19.485232666015627,-1.9963302612304688,-0.7633152008056641,-1.2359206676483154
1763205816385193000,19.50119287109375,-0.7587823867797852,-0.8636014461517334,-0.7531028985977173
1763205816401123000,19.517123046875,-0.26793766021728516,-0.8157820701599121,-0.40938496589660645
1763205816417083400,19.53308349609375,-0.4534339904785156,-0.8041517734527588,-0.2871520519256592
1763205816433013200,19.54901318359375,-0.12059593200683594,-1.0383715629577637,-0.3249533176422119
1763205816448973800,19.564973876953125,0.8571557998657227,-1.5098031759262085,-0.5234129428863525
1763205816464903700,19.580903564453124,1.5997190475463867,-1.7425501346588135,-0.7393383979797363
1763205816480833500,19.59683349609375,1.5560493469238281,-1.9111263751983643,-1.1153185367584229
1763205816496793900,19.6127939453125,0.6051645278930664,-1.6327404975891113,-1.216907024383545
1763205816512724000,19.628723876953124,-1.072671890258789,-0.9319519996643066,-0.8221782445907593
1763205816528684300,19.644684326171873,-2.124741554260254,-0.31471824645996094,-0.3934807777404785
1763205816544614100,19.6606142578125,-2.9236350059509277,0.0929117202758789,-0.028071045875549316
1763205816560574700,19.67657470703125,-2.903505802154541,0.14701557159423828,-0.08571791648864746
1763205816576504600,19.692504638671874,-2.2574968338012695,-0.026192665100097656,-0.4262266159057617
1763205816592465000,19.70846484375,-1.180063247680664,-0.19281721115112305,-0.6001836061477661
1763205816608394800,19.724394775390625,-0.1644582748413086,-0.11496257781982422,-0.5283441543579102
1763205816624355300,19.740355224609374,0.2342548370361328,0.2017979621887207,-0.2292020320892334
1763205816640285200,19.75628515625,0.1309490203857422,0.5133204460144043,-0.0320894718170166
1763205816656245500,19.77224560546875,-0.16190814971923828,0.5611300468444824,-0.16357707977294922
1763205816672175600,19.788175537109375,-0.0970163345336914,0.5082435607910156,-0.34418320655822754
1763205816688105500,19.80410546875,0.3314847946166992,0.5082094669342041,-0.3970010280609131
1763205816704065800,19.820065673828125,0.5074434280395508,0.6303894519805908,-0.3151332139968872
1763205816727991300,19.8439912109375,-0.17062854766845703,0.8016960620880127,-0.05897492170333862
1763205816743921200,19.859921142578123,-0.5731287002563477,0.914240837097168,0.05167722702026367
1763205816759881500,19.875881591796876,-1.0310001373291016,1.0998237133026123,0.17485815286636353
1763205816775811600,19.8918115234375,-1.078190803527832,1.0759670734405518,0.05319410562515259
