time,seconds_elapsed,z,y,x
1763205797002440400,0.1184404296875,-0.03994741663336754,-0.11451593041419983,0.07936219871044159
1763205797018370600,0.13437060546875,-0.08149272948503494,-0.18322548270225525,0.15073491632938385
1763205797034331000,0.150330810546875,-0.09853696078062057,-0.21038973331451416,0.1390170156955719
1763205797050291200,0.166291259765625,-0.10333064943552017,-0.16937704384326935,0.09693906456232071
1763205797066221300,0.18222119140625,-0.12144014984369278,-0.11558119207620621,0.10279802232980728
1763205797082181600,0.198181640625,-0.12090751528739929,-0.04420847445726395,0.1533980816602707
1763205797098111500,0.214111572265625,-0.09640643000602722,-0.0697748214006424,0.17363810539245605
1763205797114072000,0.230072021484375,-0.06285060197114944,-0.1113201379776001,0.16085493564605713
1763205797130002000,0.246001953125,-0.06391586363315582,-0.17789916694164276,0.09374327212572098
1763205797145962200,0.261962158203125,-0.10066749155521393,-0.19813919067382812,0.022370554506778717
1763205797161892000,0.27789208984375,-0.13582122325897217,-0.12623383104801178,-0.007989482954144478
1763205797177852700,0.293852783203125,-0.18322548270225525,-0.09906959533691406,-0.0463390052318573
1763205797193782500,0.309782470703125,-0.2322276532649994,-0.17257283627986908,-0.125168576836586
1763205797209742800,0.325742919921875,-0.26684874296188354,-0.21252025663852692,-0.15073491632938385
1763205797225673000,0.3416728515625,-0.27057716250419617,-0.18162758648395538,-0.09587380290031433
1763205797241633300,0.35763330078125,-0.2865561246871948,-0.09427590668201447,-0.03675162419676781
1763205797257563100,0.373563232421875,-0.32330775260925293,-0.022903185337781906,-0.041012682020664215
1763205797273523700,0.389523681640625,-0.35952675342559814,-0.0926780104637146,-0.0926780104637146
1763205797289453600,0.40545361328125,-0.3749730885028839,-0.15925703942775726,-0.0878843143582344
1763205797305414000,0.421413818359375,-0.37657099962234497,-0.1571265012025833,-0.06125270575284958
1763205797321344000,0.437343994140625,-0.39734363555908203,-0.11504855751991272,-0.09054747968912125
1763205797337304300,0.45330419921875,-0.41385525465011597,-0.033555831760168076,-0.14061491191387177
1763205797353234200,0.469234130859375,-0.40639838576316833,0.016511598601937294,-0.20293287932872772
1763205797369164000,0.4851640625,-0.38242992758750916,-0.05379585549235344,-0.21997711062431335
1763205797385124600,0.50112451171875,-0.3669835925102234,-0.13156016170978546,-0.21038973331451416
1763205797401054500,0.517054443359375,-0.4181163012981415,-0.162452831864357,-0.24767398834228516
1763205797417014800,0.533014892578125,-0.4639226794242859,-0.1299622654914856,-0.2977414131164551
1763205797432945000,0.54894482421875,-0.4298342168331146,-0.012250540778040886,-0.27696874737739563
1763205797448905200,0.5649052734375,-0.3904194235801697,0.05752427875995636,-0.19121496379375458
1763205797464835000,0.5808349609375,-0.37337517738342285,0.01810949668288231,-0.11504855751991272
1763205797480795600,0.596795654296875,-0.37816888093948364,-0.04314320906996727,-0.08255799859762192
1763205797496725500,0.6127255859375,-0.3797667920589447,-0.003728425595909357,-0.08681905269622803
1763205797512685800,0.628685791015625,-0.3376888334751129,0.09480853378772736,-0.1257012039422989
1763205797528615700,0.64461572265625,-0.3094593286514282,0.1576591432094574,-0.1757686287164688
1763205797544545800,0.6605458984375,-0.29454562067985535,0.2183792144060135,-0.14540860056877136
1763205797560506000,0.676506103515625,-0.2881540358066559,0.27483823895454407,-0.04740426689386368
1763205797576466400,0.692466552734375,-0.27537086606025696,0.25672873854637146,0.019174760207533836
1763205797592427000,0.708427001953125,-0.2828277051448822,0.33609092235565186,0.016511598601937294
1763205797608356900,0.72435693359375,-0.29827404022216797,0.33129724860191345,-0.03834952041506767
1763205797624317200,0.740317138671875,-0.2886866629123688,0.28069719672203064,-0.033555831760168076
1763205797640277800,0.75627783203125,-0.2865561246871948,0.26258769631385803,0.030892670154571533
1763205797656207600,0.77220751953125,-0.30466562509536743,0.2407497614622116,0.0463390052318573
1763205797672168200,0.788168212890625,-0.33662357926368713,0.28389298915863037,-0.003195793367922306
1763205797688128500,0.80412841796875,-0.3605920076370239,0.32224249839782715,-0.01438106968998909
1763205797704058400,0.820058349609375,-0.34567832946777344,0.31798145174980164,0.048469532281160355
1763205797720019000,0.83601904296875,-0.31798145174980164,0.24927188456058502,0.10546118021011353
1763205797735948800,0.85194873046875,-0.3147856593132019,0.1667138934135437,0.1294296383857727
1763205797751939600,0.867939697265625,-0.33555829524993896,0.1667138934135437,0.13156016170978546
1763205797767869700,0.88386962890625,-0.3254382908344269,0.21145498752593994,0.13315805792808533
1763205797783830000,0.899830078125,-0.2679139971733093,0.250337153673172,0.20080235600471497
1763205797799760000,0.915759765625,-0.21571604907512665,0.2886866629123688,0.31798145174980164
1763205797815720400,0.931720458984375,-0.18375812470912933,0.2588592767715454,0.3882888853549957
1763205797831650300,0.947650390625,-0.16032229363918304,0.22796659171581268,0.4277036786079407
1763205797847580200,0.963580078125,-0.15073491632938385,0.24501082301139832,0.4074636399745941
1763205797863540500,0.97954052734375,-0.1571265012025833,0.21624869108200073,0.32117724418640137
1763205797879470600,0.995470703125,-0.17417073249816895,0.1299622654914856,0.19654129445552826
1763205797895431000,1.011430908203125,-0.20293287932872772,-0.00532632227987051,0.04261057823896408
1763205797911360800,1.02736083984375,-0.22956448793411255,-0.1810949593782425,-0.0884169489145279
1763205797927321300,1.0433212890625,-0.25726136565208435,-0.2737729549407959,-0.15659387409687042
1763205797943251200,1.059251220703125,-0.26578348875045776,-0.27110978960990906,-0.16831178963184357
1763205797959211500,1.07521142578125,-0.22849921882152557,-0.13156016170978546,-0.14274543523788452
1763205797975141400,1.091141357421875,-0.14168016612529755,0.12303804606199265,-0.01757686398923397
1763205797991102000,1.10710205078125,-0.048469532281160355,0.29561087489128113,0.15233281254768372
1763205798007031800,1.12303173828125,0.02822950854897499,0.24288029968738556,0.26631611585617065
1763205798022992100,1.1389921875,0.07350324839353561,0.11664646118879318,0.30466562509536743
1763205798038922200,1.154922119140625,0.08628641813993454,0.007989482954144478,0.2780340313911438
1763205798054882600,1.170882568359375,0.13102753460407257,-0.1017327532172203,0.21411815285682678
1763205798070812400,1.1868125,0.19174760580062866,-0.24021713435649872,0.0884169489145279
1763205798086773000,1.20277294921875,0.20719394087791443,-0.41438788175582886,-0.04420847445726395
1763205798102702800,1.218702880859375,0.15872439742088318,-0.5155879855155945,-0.14647386968135834
1763205798118663200,1.2346630859375,0.06125270575284958,-0.53423011302948,-0.21038973331451416
1763205798134593300,1.25059326171875,-0.037284255027770996,-0.41065946221351624,-0.23968450725078583
1763205798150553600,1.2665537109375,-0.09054747968912125,-0.2775014042854309,-0.14114753901958466
1763205798166514000,1.282513916015625,-0.08255799859762192,-0.2679139971733093,0.04687163606286049
1763205798182444000,1.298444091796875,-0.08202536404132843,-0.2082591950893402,0.1896170675754547
1763205798198404400,1.314404296875,-0.06338323652744293,-0.016511598601937294,0.2226402759552002
1763205798214364700,1.33036474609375,-0.018642127513885498,0.13582122325897217,0.13528858125209808
1763205798230294800,1.346294677734375,-0.08894958347082138,0.16085493564605713,0.055393751710653305
1763205798246255000,1.362255126953125,-0.1858886480331421,0.30306774377822876,0.09108011424541473
1763205798262215400,1.37821533203125,-0.1715075820684433,0.07669904083013535,0.09640643000602722
1763205798278145500,1.3941455078125,-0.13209278881549835,0.016511598601937294,0.11291803419589996
1763205798294105900,1.41010595703125,-0.1901497095823288,-0.21092236042022705,0.059122178703546524
1763205798310035700,1.42603564453125,-0.2652508616447449,-0.2183792144060135,0.006391586735844612
1763205798325996300,1.441996337890625,-0.29507824778556824,-0.15073491632938385,-0.01065264455974102
1763205798341956600,1.45795654296875,-0.27643612027168274,-0.1528654545545578,-0.001597896683961153
1763205798357886500,1.473886474609375,-0.23489081859588623,-0.1395496428012848,0.006391586735844612
1763205798373847000,1.489846923828125,-0.17736652493476868,-0.06338323652744293,0.009587380103766918
1763205798389807400,1.505807373046875,-0.09001484513282776,0.015978965908288956,0.01810949668288231
1763205798405737200,1.5217373046875,-0.029294772073626518,0.002663161139935255,0.027696875855326653
1763205798421697800,1.53769775390625,-0.02503371424973011,-0.054861120879650116,0.05326322466135025
1763205798437627600,1.553627685546875,-0.07616640627384186,-0.15925703942775726,0.10279802232980728
1763205798453588000,1.569587890625,-0.10812434554100037,-0.17736652493476868,0.16990968585014343
1763205798469517800,1.585517822265625,-0.06444849818944931,-0.13635385036468506,0.1944107562303543
1763205798485478400,1.601478515625,0.018642127513885498,-0.15020228922367096,0.18482337892055511
1763205798501408300,1.617408203125,0.07723167538642883,-0.24181503057479858,0.18216022849082947
1763205798517368800,1.633368896484375,0.11504855751991272,-0.3376888334751129,0.213052898645401
1763205798533298700,1.649298583984375,0.12410330772399902,-0.36964675784111023,0.2514024078845978
1763205798549259000,1.665259033203125,0.09853696078062057,-0.3648530840873718,0.22157500684261322
1763205798565188900,1.68118896484375,0.05645901709794998,-0.3653857111930847,0.11078750342130661
1763205798581149400,1.6971494140625,0.003195793367922306,-0.42397525906562805,-0.016511598601937294
1763205798597079300,1.713079345703125,-0.03515372797846794,-0.4218447208404541,-0.12729910016059875
1763205798613039600,1.72903955078125,-0.055393751710653305,-0.3281014561653137,-0.235956072807312
1763205798628969700,1.7449697265625,-0.07776430249214172,-0.23329292237758636,-0.34088462591171265
1763205798644930000,1.760929931640625,-0.11185276508331299,-0.21198762953281403,-0.4079962968826294
1763205798660890400,1.776890380859375,-0.14008226990699768,-0.2684466540813446,-0.3749730885028839
1763205798676851000,1.792850830078125,-0.15126755833625793,-0.38775625824928284,-0.29454562067985535
1763205798692811300,1.808811279296875,-0.15393070876598358,-0.48469531536102295,-0.25353294610977173
1763205798708741000,1.8247412109375,-0.13262543082237244,-0.44741106033325195,-0.22530342638492584
1763205798724701700,1.84070166015625,-0.09108011424541473,-0.237021341919899,-0.14594122767448425
1763205798740631600,1.856631591796875,-0.041545312851667404,0.01810949668288231,0.009054748341441154
1763205798756591900,1.872591796875,-0.02183792181313038,0.1763012707233429,0.20080235600471497
1763205798772522000,1.88852197265625,-0.0463390052318573,0.20026971399784088,0.29401299357414246
1763205798788482300,1.904482421875,-0.09587380290031433,0.18375812470912933,0.2972087860107422
1763205798804412200,1.920412109375,-0.18748654425144196,0.14913702011108398,0.21252025663852692
1763205798820372700,1.936372802734375,-0.2833603322505951,0.06924218684434891,0.0740358829498291
1763205798836302600,1.952302490234375,-0.3424825370311737,0.017044231295585632,-0.07829693704843521
1763205798852263000,1.968262939453125,-0.3749730885028839,0.024501081556081772,-0.1757686287164688
1763205798868192800,1.98419287109375,-0.41065946221351624,0.09906959533691406,-0.17843179404735565
1763205798884153300,2.0001533203125,-0.36911413073539734,0.18482337892055511,-0.06285060197114944
1763205798900083200,2.016083251953125,-0.28975194692611694,0.19228023290634155,0.05006742849946022
1763205798916013000,2.032012939453125,-0.22636869549751282,0.199737086892128,0.13848437368869781
1763205798931973600,2.0479736328125,-0.22370553016662598,0.20506340265274048,0.14221280813217163
1763205798947903500,2.063903564453125,-0.26578348875045776,0.19281286001205444,0.06711166352033615
1763205798963863800,2.07986376953125,-0.3009372055530548,0.16777914762496948,-0.0511326938867569
1763205798979794000,2.0957939453125,-0.30839407444000244,0.10918960720300674,-0.17363810539245605
1763205798995754200,2.111754150390625,-0.29348036646842957,0.05006742849946022,-0.25353294610977173
1763205799011714600,2.127714599609375,-0.22583606839179993,0.04367584362626076,-0.29507824778556824
1763205799027644700,2.143644775390625,-0.14700649678707123,0.09480853378772736,-0.3238403797149658
1763205799043605000,2.15960498046875,-0.09321063756942749,0.09853696078062057,-0.35846149921417236
1763205799059534800,2.175534912109375,-0.07776430249214172,0.012783173471689224,-0.3440804183483124
1763205799075495400,2.191495361328125,-0.10599381476640701,0.014913702383637428,-0.22157500684261322
1763205799091425300,2.20742529296875,-0.12676647305488586,0.04580637067556381,-0.10386328399181366
1763205799107385600,2.223385498046875,-0.09480853378772736,0.04580637067556381,-0.04261057823896408
1763205799123315500,2.2393154296875,-0.022903185337781906,0.06444849818944931,-0.000532632227987051
1763205799139276000,2.255276123046875,0.03302319720387459,0.17896443605422974,0.023435818031430244
1763205799155236400,2.271236328125,0.0697748214006424,0.2865561246871948,0.01810949668288231
1763205799171197000,2.287197021484375,0.10918960720300674,0.3110572099685669,0.012250540778040886
1763205799187157200,2.3031572265625,0.13848437368869781,0.235956072807312,0.06924218684434891
1763205799203117600,2.31911767578125,0.09161274135112762,0.0697748214006424,0.14913702011108398
1763205799219078100,2.335078125,0.011185277253389359,-0.06072007492184639,0.21038973331451416
1763205799235038500,2.35103857421875,-0.037284255027770996,-0.08735168725252151,0.23009711503982544
1763205799258964000,2.3749638671875,0.029827404767274857,-0.01810949668288231,0.23755396902561188
1763205799274924300,2.39092431640625,0.08096009492874146,0.15499597787857056,0.2822950780391693
1763205799290884900,2.406884765625,0.08681905269622803,0.2514024078845978,0.30892670154571533
1763205799306875600,2.422875732421875,0.04420847445726395,0.2700445353984833,0.3201119601726532
1763205799322897200,2.438897216796875,-0.018642127513885498,0.24660871922969818,0.28921929001808167
1763205799338888200,2.45488818359375,-0.08149272948503494,0.11078750342130661,0.19228023290634155
1763205799354879000,2.47087890625,-0.17044231295585632,-0.05805691331624985,0.05379585549235344
1763205799370839600,2.486839599609375,-0.28549087047576904,-0.05432848632335663,-0.06285060197114944
1763205799386799900,2.5027998046875,-0.33609092235565186,0.12729910016059875,-0.07616640627384186
1763205799402791000,2.518791015625,-0.2972087860107422,0.3190467059612274,0.03834952041506767
1763205799418720800,2.534720703125,-0.17363810539245605,0.5294364094734192,0.24767398834228516
1763205799434681000,2.55068115234375,-0.03888215124607086,0.7355651259422302,0.385093092918396
1763205799450641700,2.5666416015625,0.06657902896404266,0.7339671850204468,0.3616572916507721
1763205799466663200,2.5826630859375,0.15126755833625793,0.4724447727203369,0.2183792144060135
1763205799482654000,2.598654052734375,0.19654129445552826,0.07510114461183548,0.06764429062604904
1763205799498614500,2.614614501953125,0.22157500684261322,-0.1757686287164688,-0.011185277253389359
1763205799514605300,2.630605224609375,0.2460760921239853,-0.24873925745487213,-0.05805691331624985
1763205799530566000,2.64656591796875,0.19387812912464142,-0.43303000926971436,-0.17736652493476868
1763205799546495700,2.662495849609375,0.06604639440774918,-0.699346125125885,-0.3376888334751129
1763205799562456000,2.6784560546875,-0.05006742849946022,-0.8287757635116577,-0.3701793849468231
1763205799578447000,2.694447021484375,-0.1299622654914856,-0.5507417321205139,-0.23062975704669952
1763205799594407400,2.710407470703125,-0.10812434554100037,-0.017044231295585632,-0.044741109013557434
1763205799610398500,2.7263984375,0.003728425595909357,0.35100463032722473,0.055393751710653305
1763205799626358800,2.74235888671875,0.14114753901958466,0.46552056074142456,0.1438107043504715
1763205799642319400,2.7583193359375,0.16990968585014343,0.30466562509536743,0.24234765768051147
1763205799658249200,2.774249267578125,0.07510114461183548,0.15499597787857056,0.3387540876865387
1763205799674209500,2.79020947265625,-0.061785340309143066,0.07989483326673508,0.31798145174980164
1763205799690170000,2.806170166015625,-0.1294296383857727,0.023435818031430244,0.1443433314561844
1763205799706161000,2.822160888671875,-0.11451593041419983,-0.048469532281160355,-0.07243798673152924
1763205799722091000,2.838091064453125,-0.05060006305575371,-0.15233281254768372,-0.17523600161075592
1763205799738081800,2.854081787109375,0.015446335077285767,-0.23542344570159912,-0.11398329585790634
1763205799754011600,2.87001171875,0.014913702383637428,-0.30413299798965454,0.007989482954144478
1763205799769972200,2.88597216796875,-0.020240023732185364,-0.27483823895454407,0.06764429062604904
1763205799785932500,2.9019326171875,-0.07510114461183548,-0.24714136123657227,0.03142530098557472
1763205799801893000,2.91789306640625,-0.12250541150569916,-0.2514024078845978,-0.034621093422174454
1763205799817853400,2.933853515625,-0.1299622654914856,-0.22636869549751282,-0.07616640627384186
1763205799833813800,2.949813720703125,-0.08522115647792816,-0.16777914762496948,-0.07243798673152924
1763205799849774300,2.9657744140625,-0.04048004746437073,-0.2087918370962143,-0.03994741663336754
1763205799865734700,2.981734619140625,-0.002130528911948204,-0.25619611144065857,0.005858954507857561
1763205799881695200,2.9976953125,0.04207794740796089,-0.2407497614622116,0.08575379103422165
1763205799897686000,3.01368603515625,0.06551376730203629,-0.23489081859588623,0.16564862430095673
1763205799913646600,3.029646484375,0.027696875855326653,-0.250337153673172,0.17044231295585632
1763205799929576400,3.045576416015625,-0.03675162419676781,-0.29933932423591614,0.0788295716047287
1763205799945536800,3.061536865234375,-0.03941478580236435,-0.39681100845336914,-0.014913702383637428
1763205799961497300,3.077497314453125,-0.014913702383637428,-0.4639226794242859,-0.04420847445726395
1763205799977457700,3.093457763671875,-0.019707392901182175,-0.43356263637542725,-0.0974716991186142
1763205799993418200,3.109418212890625,-0.017044231295585632,-0.37337517738342285,-0.20080235600471497
1763205800009378600,3.125378662109375,-0.033555831760168076,-0.33555829524993896,-0.3099919557571411
1763205800025339000,3.1413388671875,-0.10918960720300674,-0.3813646733760834,-0.3936152160167694
1763205800041299500,3.157299560546875,-0.19867181777954102,-0.5044026970863342,-0.44634580612182617
1763205800057290200,3.173290283203125,-0.2790992856025696,-0.5390238165855408,-0.4761732220649719
1763205800073250800,3.189250732421875,-0.3051982522010803,-0.31212249398231506,-0.46978163719177246
1763205800089211100,3.205211181640625,-0.2588592767715454,0.051665324717760086,-0.399474173784256
1763205800105141000,3.22114111328125,-0.1294296383857727,0.24341292679309845,-0.237021341919899
1763205800121101600,3.2371015625,-0.04527373984456062,0.1709749400615692,0.001597896683961153
1763205800137031400,3.253031494140625,-0.04687163606286049,-0.05273059010505676,0.22849921882152557
1763205800152991700,3.26899169921875,-0.11664646118879318,-0.2322276532649994,0.28016453981399536
1763205800168952300,3.284952392578125,-0.1533980816602707,-0.237021341919899,0.15925703942775726
1763205800184912600,3.30091259765625,-0.15606124699115753,-0.11984225362539291,-0.044741109013557434
1763205800200873200,3.316873291015625,-0.15126755833625793,0.0463390052318573,-0.1768338978290558
1763205800216803000,3.332802978515625,-0.1768338978290558,0.1901497095823288,-0.17044231295585632
1763205800232763400,3.348763427734375,-0.21252025663852692,0.20719394087791443,-0.06711166352033615
1763205800248693200,3.364693359375,-0.2226402759552002,0.11824435740709305,0.06072007492184639
1763205800264653800,3.38065380859375,-0.21411815285682678,0.04527373984456062,0.15073491632938385
1763205800280583700,3.396583740234375,-0.2173139452934265,0.07456851005554199,0.16298545897006989
1763205800296544300,3.412544189453125,-0.23489081859588623,0.14913702011108398,0.09321063756942749
1763205800312504600,3.428504638671875,-0.24501082301139832,0.16937704384326935,-0.02822950854897499
1763205800328465000,3.44446484375,-0.2183792144060135,0.1805623322725296,-0.09960222989320755
1763205800344395000,3.46039501953125,-0.20080235600471497,0.16777914762496948,-0.051665324717760086
1763205800360324900,3.476324951171875,-0.22636869549751282,0.17417073249816895,0.07723167538642883
1763205800376285200,3.49228515625,-0.2700445353984833,0.19121496379375458,0.16458335518836975
1763205800392245800,3.508245849609375,-0.3067961633205414,0.23542344570159912,0.11451593041419983
1763205800408175600,3.524175537109375,-0.3147856593132019,0.2652508616447449,-0.018642127513885498
1763205800424136000,3.540135986328125,-0.3014698326587677,0.2412824034690857,-0.16777914762496948
1763205800440065800,3.556065673828125,-0.24767398834228516,0.2274339646100998,-0.18002969026565552
1763205800456026400,3.5720263671875,-0.16990968585014343,0.14114753901958466,-0.0836232602596283
1763205800471956200,3.587956298828125,-0.0788295716047287,0.13795174658298492,0.08202536404132843
1763205800487916500,3.60391650390625,0.012783173471689224,0.30839407444000244,0.24288029968738556
1763205800503846700,3.6198466796875,0.06924218684434891,0.4351605176925659,0.2929477393627167
1763205800519807000,3.635806884765625,0.09480853378772736,0.40639838576316833,0.29933932423591614
1763205800535798000,3.651798095703125,0.11025486886501312,0.2322276532649994,0.2966761589050293
1763205800551758300,3.66775830078125,0.12463594228029251,0,0.310524582862854
1763205800567688200,3.683688232421875,0.1443433314561844,-0.14487597346305847,0.35846149921417236
1763205800583709700,3.699709716796875,0.15552860498428345,-0.10546118021011353,0.35952675342559814
1763205800599670300,3.715670166015625,0.1896170675754547,0.0511326938867569,0.32756882905960083
1763205800615630600,3.731630615234375,0.18162758648395538,0.12623383104801178,0.23435817658901215
1763205800631591000,3.7475908203125,0.11078750342130661,0.037284255027770996,0.05273059010505676
1763205800647521000,3.76352099609375,-0.013315806165337563,-0.07456851005554199,-0.1533980816602707
1763205800663481300,3.7794814453125,-0.09800432622432709,-0.1709749400615692,-0.3094593286514282
1763205800679411200,3.7954111328125,-0.09587380290031433,-0.23329292237758636,-0.3557983338832855
1763205800695371800,3.811371826171875,-0.06870955973863602,-0.21411815285682678,-0.32330775260925293
1763205800711332000,3.82733203125,-0.0601874403655529,-0.10865697264671326,-0.2556634545326233
1763205800727292400,3.84329248046875,-0.015446335077285767,0.22317290306091309,-0.10279802232980728
1763205800743253000,3.8592529296875,0.07563377916812897,0.6769755482673645,0.06870955973863602
1763205800759213300,3.87521337890625,0.22050973773002625,0.8064051866531372,0.1853560209274292
1763205800775174000,3.891173828125,0.347808837890625,0.6056028604507446,0.2455434501171112
1763205800791103700,3.907103759765625,0.39574575424194336,0.23489081859588623,0.21411815285682678
1763205800807064000,3.92306396484375,0.362189918756485,-0.0926780104637146,0.10972224175930023
1763205800823024600,3.939024658203125,0.3115898668766022,-0.3062635362148285,-0.02556634694337845
1763205800838985000,3.95498486328125,0.2604571580886841,-0.3834952116012573,-0.15925703942775726
1763205800854914800,3.970914794921875,0.19760656356811523,-0.39521312713623047,-0.2593919038772583
1763205800870875400,3.98687548828125,0.07137271761894226,-0.521979570388794,-0.35420042276382446
1763205800886835700,4.002835693359375,-0.06338323652744293,-0.6040049195289612,-0.4410194754600525
1763205800902765600,4.018765625,-0.11930961906909943,-0.36005938053131104,-0.3989415466785431
1763205800918695400,4.0346953125,-0.061785340309143066,0.1438107043504715,-0.15606124699115753
1763205800934686500,4.0506865234375,0.06924218684434891,0.5805691480636597,0.13635385036468506
1763205800950616300,4.0666162109375,0.162452831864357,0.6625944972038269,0.3243730366230011
1763205800966577000,4.082576904296875,0.18429075181484222,0.5267732739448547,0.37870150804519653
1763205800982506800,4.0985068359375,0.15606124699115753,0.2599245309829712,0.2865561246871948
1763205800998436600,4.1144365234375,0.09161274135112762,0.054861120879650116,0.11504855751991272
1763205801014397200,4.130397216796875,0.02183792181313038,-0.049002163112163544,-0.06711166352033615
1763205801030327000,4.1463271484375,-0.004793690051883459,-0.14114753901958466,-0.22903186082839966
1763205801046287400,4.162287353515625,0.027164243161678314,-0.23276028037071228,-0.310524582862854
1763205801062248000,4.178248046875,0.0649811327457428,-0.2775014042854309,-0.2961435317993164
1763205801078177800,4.194177734375,0.06338323652744293,-0.24767398834228516,-0.213052898645401
1763205801094107600,4.210107666015625,0.041545312851667404,-0.1571265012025833,-0.10918960720300674
1763205801110068000,4.22606787109375,0.01438106968998909,-0.02876213937997818,-0.02822950854897499
1763205801126028500,4.242028564453125,0.006391586735844612,-0.01757686398923397,0.03675162419676781
1763205801141958400,4.25795849609375,0.09906959533691406,-0.07776430249214172,0.13848437368869781
1763205801157918700,4.273918701171875,0.19867181777954102,-0.13102753460407257,0.22477079927921295
1763205801173848800,4.289848876953125,0.21891184151172638,-0.16298545897006989,0.25779399275779724
1763205801189809200,4.30580908203125,0.1906823366880417,-0.16511599719524384,0.2790992856025696
1763205801205739000,4.321739013671875,0.14753912389278412,-0.18482337892055511,0.2737729549407959
1763205801221699600,4.337699462890625,0.11877698451280594,-0.24927188456058502,0.21411815285682678
1763205801237660000,4.353659912109375,0.0926780104637146,-0.35047200322151184,0.11291803419589996
1763205801253620200,4.3696201171875,0.10386328399181366,-0.3792341351509094,0.051665324717760086
1763205801269580800,4.385580810546875,0.10013485699892044,-0.34887412190437317,-0.008522115647792816
1763205801285541000,4.401541015625,0.062317971140146255,-0.39254996180534363,-0.0884169489145279
1763205801301501700,4.417501708984375,0.009587380103766918,-0.35846149921417236,-0.18269285559654236
1763205801317492500,4.433492431640625,-0.02503371424973011,-0.20985709130764008,-0.30786141753196716
1763205801333453000,4.449453125,-0.08149272948503494,0.003728425595909357,-0.4319647252559662
1763205801349413400,4.465413330078125,-0.12676647305488586,0.13315805792808533,-0.5118595957756042
1763205801365343200,4.48134326171875,-0.13102753460407257,0.08894958347082138,-0.5017395615577698
1763205801381334300,4.497334228515625,-0.1022653877735138,0.001065264455974102,-0.3701793849468231
1763205801397294600,4.513294677734375,-0.023435818031430244,0.020240023732185364,-0.13156016170978546
1763205801413285600,4.52928564453125,0.06924218684434891,0.033555831760168076,0.08096009492874146
1763205801429276700,4.545276611328125,0.15393070876598358,0.03302319720387459,0.1906823366880417
1763205801445267500,4.561267333984375,0.18322548270225525,0.019174760207533836,0.19654129445552826
1763205801461228000,4.57722802734375,0.17843179404735565,0.02503371424973011,0.18322548270225525
1763205801477188400,4.593188232421875,0.14487597346305847,0.018642127513885498,0.1672465205192566
1763205801493148700,4.609148681640625,0.1304948925971985,0.06125270575284958,0.15872439742088318
1763205801509109200,4.625109130859375,0.1299622654914856,0.1304948925971985,0.1571265012025833
1763205801525039000,4.6410390625,0.1304948925971985,0.18801917135715485,0.17310547828674316
1763205801540999400,4.65699951171875,0.11771172285079956,0.23329292237758636,0.2274339646100998
1763205801556929500,4.672929443359375,0.08415589481592178,0.30786141753196716,0.31265512108802795
1763205801572889900,4.688889892578125,0.04740426689386368,0.3281014561653137,0.3382214605808258
1763205801588819700,4.70481982421875,0.012250540778040886,0.26258769631385803,0.26738137006759644
1763205801604780300,4.7207802734375,0.002663161139935255,0.16831178963184357,0.1810949593782425
1763205801620710100,4.736710205078125,0.007456851191818714,0.09853696078062057,0.0836232602596283
1763205801636670500,4.75267041015625,0.019174760207533836,0.10865697264671326,0.05006742849946022
1763205801652600600,4.7686005859375,-0.016511598601937294,0.20772656798362732,0.08415589481592178
1763205801668561000,4.784560791015625,-0.09321063756942749,0.2865561246871948,0.0740358829498291
1763205801684490800,4.80049072265625,-0.16085493564605713,0.25779399275779724,-0.02556634694337845
1763205801700451300,4.816451416015625,-0.22050973773002625,0.15446335077285767,-0.19334550201892853
1763205801716381200,4.832381103515625,-0.23861923813819885,0.04580637067556381,-0.33076462149620056
1763205801732341500,4.848341552734375,-0.21092236042022705,0.03834952041506767,-0.37657099962234497
1763205801748271400,4.864271240234375,-0.15552860498428345,0.10865697264671326,-0.2631203234195709
1763205801764201500,4.880201416015625,-0.07084008306264877,0.26258769631385803,-0.06338323652744293
1763205801780161800,4.896161865234375,0.049002163112163544,0.3110572099685669,0.07669904083013535
1763205801796091600,4.912091552734375,0.13209278881549835,0.25672873854637146,0.11664646118879318
1763205801812052200,4.92805224609375,0.18162758648395538,0.19281286001205444,0.1395496428012848
1763205801827982000,4.943982177734375,0.19387812912464142,0.11824435740709305,0.19760656356811523
1763205801843942400,4.9599423828125,0.20293287932872772,0.1342233270406723,0.2604571580886841
1763205801859872300,4.975872314453125,0.2514024078845978,0.13582122325897217,0.3350256681442261
1763205801875832800,4.991832763671875,0.26631611585617065,0.07190535217523575,0.426105797290802
1763205801891793200,5.007793212890625,0.25246766209602356,-0.015978965908288956,0.44741106033325195
1763205801907753700,5.023753662109375,0.24021713435649872,-0.10333064943552017,0.36911413073539734
1763205801923683600,5.03968359375,0.18801917135715485,-0.24021713435649872,0.1901497095823288
1763205801939644000,5.055643798828125,0.10279802232980728,-0.24181503057479858,-0.06711166352033615
1763205801955573800,5.07157373046875,0.04048004746437073,-0.12144014984369278,-0.2790992856025696
1763205801971534300,5.087534423828125,0.000532632227987051,0.03302319720387459,-0.39681100845336914
1763205801987464200,5.103464111328125,0.015978965908288956,0.19387812912464142,-0.3472762107849121
1763205802003424500,5.119424560546875,0.04207794740796089,0.24873925745487213,-0.23968450725078583
1763205802019354600,5.135354736328125,0.08628641813993454,0.36858150362968445,-0.06125270575284958
1763205802035315000,5.15131494140625,0.1342233270406723,0.5661880373954773,0.1395496428012848
1763205802051275300,5.167275146484375,0.17470337450504303,0.6109291911125183,0.21518342196941376
1763205802067235800,5.18323583984375,0.21038973331451416,0.5060006380081177,0.16458335518836975
1763205802083196200,5.199196044921875,0.26631611585617065,0.2908172011375427,0.013848437927663326
1763205802099126300,5.215126220703125,0.34621095657348633,-0.044741109013557434,-0.125168576836586
1763205802115086600,5.231086669921875,0.42344263195991516,-0.25779399275779724,-0.162452831864357
1763205802131016400,5.247016357421875,0.45646581053733826,-0.4213120937347412,-0.17257283627986908
1763205802146977000,5.26297705078125,0.399474173784256,-0.546480655670166,-0.2700445353984833
1763205802162907000,5.278906982421875,0.2695119082927704,-0.6040049195289612,-0.4415521025657654
1763205802178867200,5.2948671875,0.13795174658298492,-0.3834952116012573,-0.4681837260723114
1763205802194797000,5.310797119140625,0.06444849818944931,0.02503371424973011,-0.28549087047576904
1763205802210757600,5.326757568359375,0.11717908829450607,0.3472762107849121,0.01810949668288231
1763205802226687500,5.3426875,0.22903186082839966,0.46658584475517273,0.2551308274269104
1763205802242647800,5.358647705078125,0.29880666732788086,0.35473304986953735,0.3430151641368866
1763205802258578000,5.374577880859375,0.28069719672203064,0.18695391714572906,0.3073287904262543
1763205802274538200,5.390538330078125,0.21038973331451416,0.07563377916812897,0.18482337892055511
1763205802290468000,5.406468017578125,0.12303804606199265,0.015446335077285767,0.01065264455974102
1763205802306428700,5.4224287109375,0.07456851005554199,-0.022370554506778717,-0.12250541150569916
1763205802322358500,5.438358642578125,0.06711166352033615,-0.03621899336576462,-0.1709749400615692
1763205802338288400,5.454288330078125,0.08042746782302856,-0.09374327212572098,-0.15872439742088318
1763205802354248700,5.470248779296875,0.11025486886501312,-0.19867181777954102,-0.08255799859762192
1763205802370178800,5.4861787109375,0.12410330772399902,-0.32277512550354004,0.000532632227987051
1763205802386139100,5.50213916015625,0.09214537590742111,-0.37657099962234497,0.026631612330675125
1763205802402069000,5.518069091796875,-0.007456851191818714,-0.32170987129211426,-0.04367584362626076
1763205802418029600,5.534029541015625,-0.07989483326673508,-0.1901497095823288,-0.12357068061828613
1763205802433959400,5.54995947265625,-0.08948221802711487,-0.027696875855326653,-0.13688647747039795
1763205802449919700,5.565919677734375,-0.06285060197114944,-0.034088462591171265,-0.04048004746437073
1763205802465849600,5.581849609375,-0.001597896683961153,-0.19813919067382812,0.1294296383857727
1763205802481810200,5.59781005859375,0.0511326938867569,-0.2977414131164551,0.24927188456058502
1763205802497740000,5.613739990234375,0.009054748341441154,-0.32650354504585266,0.20240025222301483
1763205802513700600,5.62970068359375,-0.05273059010505676,-0.36325517296791077,0.03142530098557472
1763205802529630500,5.64563037109375,-0.07084008306264877,-0.3653857111930847,-0.11291803419589996
1763205802545590800,5.6615908203125,-0.03675162419676781,-0.25726136565208435,-0.10759171098470688
1763205802561520600,5.677520751953125,-0.001597896683961153,-0.21198762953281403,-0.03621899336576462
1763205802577481200,5.693481201171875,0.02876213937997818,-0.25726136565208435,-0.05699164792895317
1763205802593411000,5.7094111328125,0.05326322466135025,-0.2785666584968567,-0.16564862430095673
1763205802609371400,5.725371337890625,0.01065264455974102,-0.29561087489128113,-0.3147856593132019
1763205802625301500,5.741301513671875,-0.04048004746437073,-0.29454562067985535,-0.46605318784713745
1763205802641261800,5.75726171875,-0.1065264493227005,-0.2599245309829712,-0.596015453338623
1763205802657191700,5.773191650390625,-0.1896170675754547,-0.24820661544799805,-0.6657902598381042
1763205802673152300,5.78915234375,-0.213052898645401,-0.14008226990699768,-0.6024070382118225
1763205802689082000,5.80508203125,-0.15978966653347015,0.11930961906909943,-0.37870150804519653
1763205802705042400,5.82104248046875,-0.07350324839353561,0.3142530024051666,-0.07243798673152924
1763205802720972300,5.83697216796875,-0.04048004746437073,0.3334277868270874,0.13262543082237244
1763205802736932900,5.852932861328125,-0.048469532281160355,0.20932446420192719,0.15073491632938385
1763205802752893200,5.86889306640625,-0.051665324717760086,0.09906959533691406,0.048469532281160355
1763205802768853800,5.884853759765625,-0.015978965908288956,0.11451593041419983,-0.03195793181657791
1763205802784814000,5.90081396484375,0.015446335077285767,0.15659387409687042,0.009587380103766918
1763205802800744000,5.916743896484375,0.027164243161678314,0.125168576836586,0.13102753460407257
1763205802816704500,5.93270458984375,0.003728425595909357,0.09587380290031433,0.19867181777954102
1763205802832634400,5.94863427734375,-0.03888215124607086,0.09906959533691406,0.18748654425144196
1763205802848594700,5.9645947265625,-0.08096009492874146,0.11717908829450607,0.16564862430095673
1763205802864524500,5.980524658203125,-0.13156016170978546,0.09214537590742111,0.1113201379776001
1763205802880485000,5.996485107421875,-0.1443433314561844,0.02183792181313038,0.06604639440774918
1763205802896415000,6.0124150390625,-0.10705907642841339,-0.01438106968998909,0.07936219871044159
1763205802912375600,6.02837548828125,-0.07723167538642883,0.030892670154571533,0.11238539963960648
1763205802928336000,6.0443359375,-0.0878843143582344,0.14221280813217163,0.1480717658996582
1763205802944296200,6.060296142578125,-0.1347559541463852,0.20666129887104034,0.14753912389278412
1763205802960226300,6.076226318359375,-0.19121496379375458,0.18216022849082947,0.10120012611150742
1763205802976186600,6.0921865234375,-0.250337153673172,0.1113201379776001,-0.004261057823896408
1763205802992116500,6.108116455078125,-0.28016453981399536,0.1065264493227005,-0.10492854565382004
1763205803008077000,6.1240771484375,-0.2599245309829712,0.18695391714572906,-0.12410330772399902
1763205803024037400,6.140037353515625,-0.20985709130764008,0.24714136123657227,-0.07510114461183548
1763205803039967200,6.15596728515625,-0.1619201898574829,0.27537086606025696,0.019174760207533836
1763205803055958300,6.171958251953125,-0.12090751528739929,0.23062975704669952,0.13315805792808533
1763205803071918600,6.187918701171875,-0.055926382541656494,0.1906823366880417,0.22050973773002625
1763205803087879200,6.203879150390625,-0.004261057823896408,0.18216022849082947,0.23435817658901215
1763205803103839500,6.219839599609375,0.01438106968998909,0.19334550201892853,0.1757686287164688
1763205803119830500,6.23583056640625,0.013315806165337563,0.14008226990699768,0.0974716991186142
1763205803135790800,6.251790771484375,0.022903185337781906,0.06870955973863602,0.12090751528739929
1763205803151751200,6.267751220703125,0.02556634694337845,-0.017044231295585632,0.1901497095823288
1763205803167681300,6.283681396484375,0.04314320906996727,-0.05699164792895317,0.23489081859588623
1763205803183641600,6.2996416015625,0.0511326938867569,-0.10386328399181366,0.2183792144060135
1763205803199602000,6.315601806640625,0.04314320906996727,-0.04527373984456062,0.14594122767448425
1763205803215562500,6.3315625,-0.003195793367922306,0.15073491632938385,0.034621093422174454
1763205803231522800,6.347522705078125,-0.08202536404132843,0.29561087489128113,-0.08628641813993454
1763205803247483400,6.3634833984375,-0.09534116834402084,0.34621095657348633,-0.17789916694164276
1763205803263413200,6.379413330078125,-0.08468852192163467,0.29987195134162903,-0.25619611144065857
1763205803279373600,6.39537353515625,-0.1022653877735138,0.20293287932872772,-0.28921929001808167
1763205803295334100,6.411334228515625,-0.0926780104637146,0.1438107043504715,-0.28495824337005615
1763205803311294500,6.42729443359375,-0.03515372797846794,0.1432780623435974,-0.22370553016662598
1763205803327224300,6.443224365234375,0.07829693704843521,0.33662357926368713,-0.07989483326673508
1763205803343185000,6.459184814453125,0.19600865244865417,0.558731198310852,0.06604639440774918
1763205803359145200,6.475145263671875,0.27590349316596985,0.4729774296283722,0.14913702011108398
1763205803375075000,6.491074951171875,0.31372037529945374,0.15233281254768372,0.16937704384326935
1763205803391035600,6.50703564453125,0.3158509135246277,-0.1896170675754547,0.11291803419589996
1763205803406996000,6.522995849609375,0.2929477393627167,-0.36378780007362366,0.004793690051883459
1763205803422956500,6.53895654296875,0.3110572099685669,-0.3483414649963379,-0.10013485699892044
1763205803438886400,6.554886474609375,0.28602349758148193,-0.22370553016662598,-0.13848437368869781
1763205803454846700,6.5708466796875,0.18269285559654236,-0.0788295716047287,-0.16831178963184357
1763205803470776600,6.586776611328125,0.05965480953454971,-0.019174760207533836,-0.19547602534294128
1763205803486737200,6.602737060546875,-0.06551376730203629,-0.01438106968998909,-0.15233281254768372
1763205803502667000,6.6186669921875,-0.14274543523788452,-0.1113201379776001,-0.0463390052318573
1763205803518627300,6.63462744140625,-0.09108011424541473,-0.13156016170978546,0.08415589481592178
1763205803534557400,6.650557373046875,0.04048004746437073,-0.09321063756942749,0.17363810539245605
1763205803550517800,6.666517822265625,0.11930961906909943,-0.0836232602596283,0.14487597346305847
1763205803566447600,6.682447509765625,0.13635385036468506,-0.03568635880947113,0.08149272948503494
1763205803582377500,6.69837744140625,0.09587380290031433,0.008522115647792816,0.003195793367922306
1763205803598338000,6.714338134765625,0.03941478580236435,0.011717909015715122,-0.0740358829498291
1763205803614268000,6.730267822265625,-0.02183792181313038,-0.07989483326673508,-0.1294296383857727
1763205803630228500,6.746228515625,-0.05273059010505676,-0.17736652493476868,-0.13741911947727203
1763205803646158300,6.762158447265625,-0.07350324839353561,-0.20559604465961456,-0.1528654545545578
1763205803662118700,6.77811865234375,-0.08468852192163467,-0.1858886480331421,-0.16085493564605713
1763205803678048500,6.794048583984375,-0.09374327212572098,-0.15446335077285767,-0.1017327532172203
1763205803694009000,6.810009033203125,-0.10333064943552017,-0.15925703942775726,-0.014913702383637428
1763205803709969400,6.825969482421875,-0.09321063756942749,-0.11717908829450607,0.06870955973863602
1763205803725930000,6.841929931640625,-0.09321063756942749,-0.04048004746437073,0.1581917703151703
1763205803741859800,6.85785986328125,-0.11398329585790634,-0.02183792181313038,0.25726136565208435
1763205803757820200,6.873820068359375,-0.1022653877735138,-0.055926382541656494,0.324905663728714
1763205803773750000,6.88975,-0.08735168725252151,-0.17044231295585632,0.34141725301742554
1763205803789710600,6.905710693359375,-0.06817692518234253,-0.2460760921239853,0.32703620195388794
1763205803805640400,6.921640380859375,-0.08628641813993454,-0.3014698326587677,0.2929477393627167
1763205803821600800,6.937600830078125,-0.14221280813217163,-0.34887412190437317,0.2221076339483261
1763205803837531000,6.95353076171875,-0.17044231295585632,-0.26152241230010986,0.15126755833625793
1763205803853491200,6.9694912109375,-0.15872439742088318,-0.18429075181484222,0.14966966211795807
1763205803869451500,6.985451416015625,-0.1390170156955719,-0.24873925745487213,0.1571265012025833
1763205803885381600,7.001381591796875,-0.16564862430095673,-0.3153182864189148,0.08415589481592178
1763205803901342000,7.017342041015625,-0.23116238415241241,-0.30306774377822876,-0.08309062570333481
1763205803917271800,7.033271728515625,-0.2790992856025696,-0.29401299357414246,-0.2700445353984833
1763205803933201700,7.04920166015625,-0.30892670154571533,-0.22050973773002625,-0.42344263195991516
1763205803949162200,7.065162353515625,-0.3147856593132019,-0.17044231295585632,-0.49428272247314453
1763205803965122600,7.08112255859375,-0.30360037088394165,-0.11717908829450607,-0.4213120937347412
1763205803981083100,7.097083251953125,-0.27590349316596985,-0.004793690051883459,-0.2364887148141861
1763205803997013000,7.113012939453125,-0.24767398834228516,0.17044231295585632,-0.008522115647792816
1763205804012973300,7.128973388671875,-0.237021341919899,0.2460760921239853,0.1390170156955719
1763205804028903400,7.1449033203125,-0.2412824034690857,0.1709749400615692,0.20932446420192719
1763205804044863700,7.16086376953125,-0.25832661986351013,0.05645901709794998,0.18375812470912933
1763205804060793600,7.176793701171875,-0.22423817217350006,-0.06551376730203629,0.09693906456232071
1763205804076754200,7.192754150390625,-0.17470337450504303,-0.09480853378772736,0.002663161139935255
1763205804092714500,7.208714599609375,-0.15925703942775726,-0.026631612330675125,-0.06551376730203629
1763205804108674800,7.2246748046875,-0.18748654425144196,0.05965480953454971,-0.05965480953454971
1763205804124605000,7.24060498046875,-0.24767398834228516,0.12357068061828613,-0.006391586735844612
1763205804140565200,7.256565185546875,-0.2545982003211975,0.1480717658996582,0.05060006305575371
1763205804156525600,7.272525634765625,-0.2316950261592865,0.10333064943552017,0.09534116834402084
1763205804172486100,7.288486083984375,-0.24021713435649872,0.06870955973863602,0.11078750342130661
1763205804188416000,7.304416015625,-0.28549087047576904,-0.00532632227987051,0.07510114461183548
1763205804204376300,7.320376220703125,-0.28122982382774353,-0.07297061383724213,0.034088462591171265
1763205804220337000,7.3363369140625,-0.2269013226032257,-0.06285060197114944,0.04261057823896408
1763205804236297200,7.352297119140625,-0.1896170675754547,0.015446335077285767,0.051665324717760086
1763205804252227000,7.36822705078125,-0.19760656356811523,0.0974716991186142,0.059122178703546524
1763205804268187600,7.384187744140625,-0.235956072807312,0.10705907642841339,0.06551376730203629
1763205804284148000,7.40014794921875,-0.27110978960990906,0.07776430249214172,0.062317971140146255
1763205804300139000,7.416138916015625,-0.26631611585617065,0.08628641813993454,0.049002163112163544
1763205804316129800,7.4321298828125,-0.22636869549751282,0.10386328399181366,0.047936901450157166
1763205804332120800,7.448120849609375,-0.15180018544197083,0.1017327532172203,0.11291803419589996
1763205804348112000,7.46411181640625,-0.10972224175930023,0.1347559541463852,0.19121496379375458
1763205804364072200,7.480072265625,-0.11558119207620621,0.16032229363918304,0.22849921882152557
1763205804380032800,7.49603271484375,-0.1299622654914856,0.2269013226032257,0.2455434501171112
1763205804396023600,7.5120234375,-0.14114753901958466,0.2540655732154846,0.24288029968738556
1763205804412014600,7.5280146484375,-0.16032229363918304,0.18002969026565552,0.21038973331451416
1763205804427975000,7.543974853515625,-0.12303804606199265,0.08415589481592178,0.22157500684261322
1763205804443966000,7.559966064453125,-0.07350324839353561,0.019707392901182175,0.23542344570159912
1763205804459926300,7.57592626953125,-0.026098979637026787,0.002130528911948204,0.235956072807312
1763205804475917300,7.591917236328125,0.01438106968998909,0.058589544147253036,0.22956448793411255
1763205804491908000,7.607908203125,0.05273059010505676,0.12836436927318573,0.20932446420192719
1763205804507899100,7.623899169921875,0.041545312851667404,0.009054748341441154,0.13635385036468506
1763205804523890200,7.63989013671875,0.01065264455974102,-0.22903186082839966,-0.05006742849946022
1763205804539881000,7.655880859375,-0.03941478580236435,-0.3930825889110565,-0.30360037088394165
1763205804555902500,7.67190234375,-0.09480853378772736,-0.3153182864189148,-0.5406216979026794
1763205804571954400,7.687954345703125,-0.14061491191387177,-0.006924218963831663,-0.6450176239013672
1763205804588006400,7.70400634765625,-0.11877698451280594,0.26631611585617065,-0.5390238165855408
1763205804603997400,7.71999755859375,-0.048469532281160355,0.4394215941429138,-0.2045307755470276
1763205804619988200,7.73598828125,0.03675162419676781,0.5560680627822876,0.18482337892055511
1763205804635918300,7.75191845703125,0.0836232602596283,0.5699164867401123,0.3328951299190521
1763205804651909000,7.7679091796875,0.10546118021011353,0.4575310945510864,0.23542344570159912
1763205804667900200,7.783900146484375,0.16085493564605713,0.29507824778556824,0.04953479766845703
1763205804683860500,7.799860595703125,0.25672873854637146,0.022370554506778717,-0.10333064943552017
1763205804699851500,7.8158515625,0.31265512108802795,-0.20932446420192719,-0.12676647305488586
1763205804715873000,7.831873046875,0.2604571580886841,-0.33981937170028687,-0.06444849818944931
1763205804731863800,7.84786376953125,0.10705907642841339,-0.4500742256641388,-0.08202536404132843
1763205804747824400,7.863824462890625,-0.07563377916812897,-0.51292484998703,-0.24660871922969818
1763205804763815200,7.879815185546875,-0.18695391714572906,-0.4362258017063141,-0.40160471200942993
1763205804779806200,7.89580615234375,-0.22903186082839966,-0.20133498311042786,-0.4447479248046875
1763205804795797200,7.91179736328125,-0.17789916694164276,0.06125270575284958,-0.3147856593132019
1763205804811757600,7.927757568359375,-0.06072007492184639,0.19228023290634155,-0.07190535217523575
1763205804827718000,7.9437177734375,0.059122178703546524,0.19228023290634155,0.17363810539245605
1763205804843678500,7.959678466796875,0.0878843143582344,0.12197277694940567,0.3094593286514282
1763205804859638800,7.975638671875,0.04314320906996727,0.06072007492184639,0.28602349758148193
1763205804875599400,7.991599365234375,0.011185277253389359,0.006391586735844612,0.12090751528739929
1763205804891559700,8.0075595703125,0.013848437927663326,-0.023968450725078583,-0.07030745595693588
1763205804907550700,8.02355078125,0.03302319720387459,-0.012783173471689224,-0.11984225362539291
1763205804923572200,8.039572265625,0.02556634694337845,-0.03302319720387459,-0.09108011424541473
1763205804939532500,8.055532470703126,-0.003728425595909357,-0.09108011424541473,-0.06657902896404266
1763205804955523600,8.071523681640626,-0.02183792181313038,-0.19387812912464142,-0.041545312851667404
1763205804971484000,8.08748388671875,-0.004793690051883459,-0.34088462591171265,0.041545312851667404
1763205804987475000,8.103474853515625,0.015446335077285767,-0.41385525465011597,0.16032229363918304
1763205805003435300,8.119435302734376,0.029294772073626518,-0.29507824778556824,0.21145498752593994
1763205805019395600,8.1353955078125,0.062317971140146255,-0.0836232602596283,0.18855181336402893
1763205805035386600,8.15138671875,0.0884169489145279,0.007989482954144478,0.16618125140666962
1763205805051377700,8.167377685546874,0.08575379103422165,-0.08575379103422165,0.17257283627986908
1763205805067399000,8.18339892578125,0.07669904083013535,-0.2508697807788849,0.22796659171581268
1763205805083390000,8.199389892578125,0.062317971140146255,-0.3254382908344269,0.2556634545326233
1763205805099381000,8.215381103515625,0.06817692518234253,-0.2924150824546814,0.23435817658901215
1763205805115341300,8.23134130859375,0.09693906456232071,-0.23116238415241241,0.13262543082237244
1763205805131362800,8.24736279296875,0.15073491632938385,-0.16458335518836975,-0.010120011866092682
1763205805147353900,8.263353759765625,0.19707392156124115,-0.1443433314561844,-0.08096009492874146
1763205805163344600,8.2793447265625,0.22530342638492584,-0.15552860498428345,-0.002130528911948204
1763205805179335700,8.295335693359375,0.2407497614622116,-0.32650354504585266,0.09374327212572098
1763205805195296000,8.3112958984375,0.23808661103248596,-0.4500742256641388,0.09800432622432709
1763205805211256600,8.327256591796875,0.23062975704669952,-0.3840278387069702,0.015446335077285767
1763205805227217000,8.343216796875,0.22530342638492584,-0.2790992856025696,-0.13688647747039795
1763205805243208000,8.3592080078125,0.22104237973690033,-0.26631611585617065,-0.32277512550354004
1763205805259168300,8.375168212890625,0.17896443605422974,-0.28549087047576904,-0.4761732220649719
1763205805275128600,8.391128662109375,0.12303804606199265,-0.21571604907512665,-0.48895639181137085
1763205805291089200,8.407089111328125,0.10705907642841339,0.022370554506778717,-0.3254382908344269
1763205805307049500,8.423049560546875,0.11078750342130661,0.20133498311042786,-0.11717908829450607
1763205805323040500,8.43904052734375,0.11025486886501312,0.28016453981399536,0.09693906456232071
1763205805339000800,8.455000732421874,0.1065264493227005,0.1901497095823288,0.1533980816602707
1763205805354961400,8.47096142578125,0.09800432622432709,0.07190535217523575,0.11717908829450607
1763205805370921700,8.486921630859374,0.04261057823896408,-0.11664646118879318,0.03568635880947113
1763205805386882300,8.50288232421875,-0.02183792181313038,-0.1896170675754547,-0.048469532281160355
1763205805402812200,8.518812255859375,-0.034088462591171265,-0.14114753901958466,-0.18375812470912933
1763205805418772500,8.5347724609375,-0.022370554506778717,0.029294772073626518,-0.2785666584968567
1763205805434733000,8.550733154296875,-0.0324905663728714,0.20932446420192719,-0.21465079486370087
1763205805450693400,8.566693359375,-0.06924218684434891,0.30839407444000244,-0.009054748341441154
1763205805466653700,8.58265380859375,-0.09906959533691406,0.2977414131164551,0.17896443605422974
1763205805482614300,8.5986142578125,-0.10599381476640701,0.2455434501171112,0.23542344570159912
1763205805498605000,8.61460498046875,-0.09427590668201447,0.21198762953281403,0.18855181336402893
1763205805514596000,8.63059619140625,-0.07510114461183548,0.17310547828674316,0.06285060197114944
1763205805530617600,8.64661767578125,-0.033555831760168076,0.16831178963184357,-0.034621093422174454
1763205805546608400,8.6626083984375,-0.013315806165337563,0.16618125140666962,-0.06391586363315582
1763205805562569000,8.67856884765625,-0.011717909015715122,0.23435817658901215,-0.02822950854897499
1763205805578529300,8.694529296875,0.001597896683961153,0.2929477393627167,0.03941478580236435
1763205805594459400,8.71045947265625,0.012250540778040886,0.23861923813819885,0.07030745595693588
1763205805610419700,8.726419677734375,-0.0463390052318573,0.11185276508331299,0.01065264455974102
1763205805626380000,8.742380126953124,-0.0926780104637146,0.10439591854810715,-0.08149272948503494
1763205805642310100,8.75831005859375,-0.08149272948503494,0.2599245309829712,-0.1022653877735138
1763205805658270500,8.7742705078125,-0.027696875855326653,0.36751624941825867,-0.03515372797846794
1763205805674292000,8.7902919921875,0.07243798673152924,0.3792341351509094,0.058589544147253036
1763205805690252300,8.806252197265625,0.2045307755470276,0.3238403797149658,0.17044231295585632
1763205805706212900,8.822212890625,0.260989785194397,0.2178465873003006,0.2545982003211975
1763205805722173200,8.838173095703125,0.260989785194397,0.2045307755470276,0.3014698326587677
1763205805738133500,8.854133544921876,0.23382554948329926,0.3014698326587677,0.27963191270828247
1763205805754124500,8.87012451171875,0.20026971399784088,0.35846149921417236,0.25619611144065857
1763205805770054400,8.886054443359376,0.18748654425144196,0.3195793330669403,0.23435817658901215
1763205805786015000,8.902014892578125,0.2540655732154846,0.23861923813819885,0.25779399275779724
1763205805801975300,8.917975341796875,0.32224249839782715,0.1896170675754547,0.3057309091091156
1763205805817935600,8.933935546875,0.36911413073539734,0.15446335077285767,0.40053942799568176
1763205805833957000,8.94995703125,0.3419498801231384,0.06604639440774918,0.4905542731285095
1763205805849917700,8.965917724609374,0.23915186524391174,-0.02556634694337845,0.44741106033325195
1763205805865847600,8.98184765625,0.10120012611150742,0.015978965908288956,0.1715075820684433
1763205805881838600,8.997838623046874,0.03302319720387459,0.11238539963960648,-0.21092236042022705
1763205805897799000,9.013798828125,0.0649811327457428,0.19654129445552826,-0.4857605993747711
1763205805913759200,9.02975927734375,0.13741911947727203,0.18855181336402893,-0.5550028085708618
1763205805929719800,9.0457197265625,0.2034655064344406,0.22636869549751282,-0.3605920076370239
1763205805945680100,9.06168017578125,0.23542344570159912,0.4213120937347412,-0.024501081556081772
1763205805969575000,9.085574951171875,0.24288029968738556,0.5416869521141052,0.2599245309829712
1763205805985535500,9.101535400390626,0.2636529505252838,0.4021373391151428,0.15020228922367096
1763205806001465300,9.11746533203125,0.310524582862854,0.11824435740709305,-0.11398329585790634
1763205806017456400,9.133456298828126,0.3669835925102234,-0.10439591854810715,-0.3659183382987976
1763205806033416700,9.149416748046875,0.4362258017063141,-0.1901497095823288,-0.46179214119911194
1763205806049377300,9.165377197265625,0.47137951850891113,-0.19547602534294128,-0.40959417819976807
1763205806065337600,9.181337646484375,0.4308994710445404,-0.22636869549751282,-0.3238403797149658
1763205806081298000,9.1972978515625,0.31212249398231506,-0.2833603322505951,-0.2679139971733093
1763205806097258500,9.213258544921874,0.19281286001205444,-0.19813919067382812,-0.21944448351860046
1763205806113218800,9.22921875,0.16990968585014343,0.08681905269622803,-0.1672465205192566
1763205806129209900,9.2452099609375,0.21092236042022705,0.3376888334751129,-0.1294296383857727
1763205806145139700,9.2611396484375,0.2881540358066559,0.40107205510139465,-0.06924218684434891
1763205806161100000,9.27710009765625,0.33981937170028687,0.33609092235565186,0.02503371424973011
1763205806177060600,9.293060546875,0.3334277868270874,0.20772656798362732,0.11984225362539291
1763205806193051400,9.309051513671875,0.29561087489128113,0.06764429062604904,0.1576591432094574
1763205806209012000,9.325011962890626,0.2689792811870575,-0.049002163112163544,0.11078750342130661
1763205806225002800,9.341002685546876,0.25832661986351013,-0.04740426689386368,-0.0463390052318573
1763205806240963300,9.35696337890625,0.27537086606025696,-0.0324905663728714,-0.21198762953281403
1763205806256893200,9.37289306640625,0.29401299357414246,-0.11025486886501312,-0.2700445353984833
1763205806272853500,9.388853515625,0.30892670154571533,-0.16032229363918304,-0.20612867176532745
1763205806288814000,9.40481396484375,0.29454562067985535,-0.19281286001205444,-0.11877698451280594
1763205806304805000,9.42080517578125,0.24767398834228516,-0.1571265012025833,-0.051665324717760086
1763205806320765400,9.436765380859375,0.21465079486370087,-0.02876213937997818,0.001597896683961153
1763205806336725800,9.452725830078125,0.22050973773002625,0.0511326938867569,0.03621899336576462
1763205806352716800,9.468716796875,0.22104237973690033,-0.02876213937997818,0.0601874403655529
1763205806368677000,9.484677001953125,0.16990968585014343,-0.16351810097694397,0.05060006305575371
1763205806384637700,9.5006376953125,0.10759171098470688,-0.2604571580886841,-0.001597896683961153
1763205806400598000,9.516597900390625,0.11451593041419983,-0.25193503499031067,-0.000532632227987051
1763205806416558600,9.53255859375,0.1715075820684433,-0.15126755833625793,0.033555831760168076
1763205806432519000,9.548518798828125,0.26258769631385803,0.003728425595909357,0.07030745595693588
1763205806448479200,9.564479248046876,0.32650354504585266,0.08149272948503494,0.10865697264671326
1763205806464439800,9.580439697265625,0.3701793849468231,0.051665324717760086,0.17789916694164276
1763205806480400100,9.596400146484376,0.3392867147922516,-0.14487597346305847,0.2135855257511139
1763205806496421600,9.612421630859375,0.27483823895454407,-0.38775625824928284,0.15233281254768372
1763205806512412700,9.62841259765625,0.18375812470912933,-0.4772384762763977,-0.02183792181313038
1763205806528403500,9.644403564453125,0.1304948925971985,-0.3536677956581116,-0.2178465873003006
1763205806544364000,9.660364013671876,0.10865697264671326,-0.2226402759552002,-0.4021373391151428
1763205806560324400,9.676324462890625,0.1576591432094574,-0.16511599719524384,-0.4277036786079407
1763205806576285000,9.692284912109375,0.16032229363918304,-0.18216022849082947,-0.29028457403182983
1763205806592245200,9.708245361328125,0.1257012039422989,-0.14114753901958466,-0.11078750342130661
1763205806608175000,9.724175048828124,0.11345066130161285,0.08948221802711487,0.027164243161678314
1763205806624166100,9.740166259765624,0.11771172285079956,0.21624869108200073,0.08948221802711487
1763205806640157000,9.756156982421874,0.15073491632938385,0.19760656356811523,0.17417073249816895
1763205806656117500,9.772117431640625,0.162452831864357,0.16458335518836975,0.2817624509334564
1763205806672108300,9.7881083984375,0.16511599719524384,0.13369068503379822,0.32170987129211426
1763205806688099300,9.804099365234375,0.1619201898574829,0.11504855751991272,0.29561087489128113
1763205806704090400,9.82009033203125,0.1480717658996582,0.02503371424973011,0.17736652493476868
1763205806720050700,9.83605078125,0.12197277694940567,-0.0974716991186142,0.017044231295585632
1763205806736041700,9.852041748046876,0.10759171098470688,-0.055393751710653305,-0.10705907642841339
1763205806751971600,9.8679716796875,0.1390170156955719,0.11398329585790634,-0.1533980816602707
1763205806767962600,9.883962646484376,0.17044231295585632,0.23755396902561188,-0.12889699637889862
1763205806783923000,9.8999228515625,0.18695391714572906,0.2545982003211975,-0.013848437927663326
1763205806799883300,9.91588330078125,0.16405072808265686,0.1853560209274292,0.16618125140666962
1763205806815843800,9.93184375,0.11717908829450607,0.13156016170978546,0.28016453981399536
1763205806831834600,9.947834716796875,0.0926780104637146,0.1438107043504715,0.21465079486370087
1763205806847795200,9.963795166015625,0.11504855751991272,0.18322548270225525,0.07776430249214172
1763205806863755500,9.979755615234374,0.1619201898574829,0.22636869549751282,-0.03941478580236435
1763205806879716000,9.995716064453125,0.19813919067382812,0.21198762953281403,-0.09480853378772736
1763205806895676400,10.011676513671874,0.20133498311042786,0.22104237973690033,-0.06072007492184639
1763205806911667500,10.02766748046875,0.1944107562303543,0.22796659171581268,0.007989482954144478
1763205806927658200,10.043658203125,0.15126755833625793,0.27963191270828247,0.08042746782302856
1763205806943618800,10.059618896484375,0.07243798673152924,0.3563309609889984,0.07030745595693588
1763205806959579100,10.0755791015625,0.07084008306264877,0.36964675784111023,0.008522115647792816
1763205806975509000,10.091509033203126,0.16405072808265686,0.347808837890625,-0.026631612330675125
1763205806991469600,10.107469482421875,0.2865561246871948,0.3254382908344269,0.019174760207533836
1763205807007430000,10.123429931640626,0.3536677956581116,0.3147856593132019,0.1257012039422989
1763205807023359700,10.13935986328125,0.3669835925102234,0.33555829524993896,0.2721750736236572
1763205807039320300,10.1553203125,0.32277512550354004,0.3531351685523987,0.3350256681442261
1763205807055280600,10.17128076171875,0.3057309091091156,0.34088462591171265,0.2966761589050293
1763205807071241200,10.1872412109375,0.347808837890625,0.25300031900405884,0.21145498752593994
1763205807087201500,10.203201416015625,0.38669100403785706,0.1672465205192566,0.13795174658298492
1763205807103131400,10.21913134765625,0.38669100403785706,0.052197959274053574,0.09906959533691406
1763205807119092000,10.235092041015625,0.3664509654045105,-0.010120011866092682,0.07776430249214172
1763205807135021800,10.251021728515624,0.36804887652397156,0.01438106968998909,0.06444849818944931
1763205807150982100,10.266982177734375,0.3648530840873718,0.1571265012025833,0.10439591854810715
1763205807166942700,10.282942626953124,0.31212249398231506,0.2636529505252838,0.1113201379776001
1763205807182903000,10.298903076171875,0.24288029968738556,0.27057716250419617,0.013315806165337563
1763205807198863400,10.31486328125,0.2178465873003006,0.20719394087791443,-0.16405072808265686
1763205807214824000,10.330823974609375,0.2269013226032257,0.1257012039422989,-0.33609092235565186
1763205807230753800,10.34675390625,0.2087918370962143,0.1576591432094574,-0.45646581053733826
1763205807246714000,10.362714111328126,0.21252025663852692,0.33076462149620056,-0.5150553584098816
1763205807262644200,10.378644287109376,0.2412824034690857,0.5230448246002197,-0.42504051327705383
1763205807278604500,10.3946044921875,0.28442561626434326,0.6327670812606812,-0.18642127513885498
1763205807294534400,10.410534423828125,0.32650354504585266,0.6077333688735962,0.008522115647792816
1763205807310495000,10.426494873046876,0.3483414649963379,0.35952675342559814,0.03994741663336754
1763205807326455300,10.442455322265625,0.36432045698165894,0.013315806165337563,-0.07456851005554199
1763205807342415600,10.45841552734375,0.39148467779159546,-0.21198762953281403,-0.25832661986351013
1763205807358345700,10.474345703125,0.40639838576316833,-0.24660871922969818,-0.34887412190437317
1763205807374306000,10.49030615234375,0.3978762626647949,-0.22050973773002625,-0.34088462591171265
1763205807390266400,10.506266357421875,0.3653857111930847,-0.2790992856025696,-0.3483414649963379
1763205807406196500,10.522196533203125,0.2721750736236572,-0.3946804702281952,-0.4165183901786804
1763205807422156800,10.53815673828125,0.19121496379375458,-0.385093092918396,-0.4181163012981415
1763205807438086700,10.554086669921874,0.1757686287164688,-0.1720402091741562,-0.25672873854637146
1763205807454047200,10.570047119140625,0.21038973331451416,0.05699164792895317,-0.029294772073626518
1763205807469977000,10.58597705078125,0.24820661544799805,0.2599245309829712,0.13582122325897217
1763205807485937400,10.6019375,0.29507824778556824,0.347808837890625,0.20240025222301483
1763205807501898000,10.61789794921875,0.30413299798965454,0.33662357926368713,0.20506340265274048
1763205807517858300,10.6338583984375,0.2775014042854309,0.14913702011108398,0.12144014984369278
1763205807533788200,10.6497880859375,0.2721750736236572,-0.003728425595909357,0.009054748341441154
1763205807549718300,10.66571826171875,0.29933932423591614,-0.059122178703546524,-0.04367584362626076
1763205807565678600,10.6816787109375,0.32330775260925293,-0.02876213937997818,-0.055393751710653305
1763205807581608400,10.6976083984375,0.3472762107849121,-0.027696875855326653,-0.010120011866092682
1763205807597569000,10.713569091796876,0.3286340832710266,-0.0649811327457428,0.05273059010505676
1763205807613499000,10.729498779296875,0.29880666732788086,-0.14647386968135834,0.0511326938867569
1763205807629459200,10.745459228515625,0.2775014042854309,-0.1901497095823288,-0.004261057823896408
1763205807645389000,10.76138916015625,0.237021341919899,-0.21944448351860046,-0.05752427875995636
1763205807661349600,10.777349609375,0.22477079927921295,-0.1763012707233429,-0.04048004746437073
1763205807677279500,10.793279541015625,0.23489081859588623,-0.12144014984369278,0.006391586735844612
1763205807693239800,10.80923974609375,0.26205506920814514,-0.07563377916812897,0.05006742849946022
1763205807709170000,10.825169921875,0.273240327835083,-0.08255799859762192,0.07989483326673508
1763205807725130200,10.841130126953125,0.28016453981399536,-0.11025486886501312,0.11238539963960648
1763205807741060000,10.85706005859375,0.2908172011375427,-0.07030745595693588,0.1672465205192566
1763205807757020700,10.873020751953124,0.25832661986351013,-0.018642127513885498,0.17257283627986908
1763205807772950500,10.888950439453126,0.2178465873003006,0.03302319720387459,0.11238539963960648
1763205807788910800,10.904910888671875,0.22370553016662598,0.006391586735844612,0.01438106968998909
1763205807804840700,10.9208408203125,0.25672873854637146,-0.1294296383857727,-0.09001484513282776
1763205807820801300,10.93680126953125,0.32117724418640137,-0.23808661103248596,-0.11078750342130661
1763205807836731100,10.952731201171876,0.34141725301742554,-0.3190467059612274,-0.09374327212572098
1763205807852691700,10.968691650390625,0.29933932423591614,-0.36911413073539734,-0.1161138266324997
1763205807868621600,10.98462158203125,0.23755396902561188,-0.3605920076370239,-0.20240025222301483
1763205807884582000,11.000581787109375,0.21624869108200073,-0.3472762107849121,-0.31798145174980164
1763205807900511700,11.01651171875,0.22050973773002625,-0.4085289239883423,-0.3936152160167694
1763205807916472300,11.032472412109374,0.21518342196941376,-0.4218447208404541,-0.374440461397171
1763205807932402200,11.048402099609374,0.21944448351860046,-0.24927188456058502,-0.22370553016662598
1763205807948362500,11.064362548828125,0.22583606839179993,0.023435818031430244,0.03195793181657791
1763205807964292600,11.080292724609375,0.22583606839179993,0.14114753901958466,0.2412824034690857
1763205807980253000,11.0962529296875,0.2364887148141861,0.1805623322725296,0.37284255027770996
1763205807996182800,11.112182861328124,0.22477079927921295,0.21465079486370087,0.3978762626647949
1763205808012112600,11.128112548828126,0.22104237973690033,0.14913702011108398,0.3051982522010803
1763205808028073200,11.1440732421875,0.2045307755470276,0.07669904083013535,0.1805623322725296
1763205808044003000,11.160003173828125,0.15499597787857056,0.06391586363315582,0.06870955973863602
1763205808059963400,11.17596337890625,0.12090751528739929,0.14753912389278412,-0.010120011866092682
1763205808075893500,11.1918935546875,0.09427590668201447,0.15393070876598358,-0.07989483326673508
1763205808091853800,11.207853759765625,0.11930961906909943,0.13156016170978546,-0.11504855751991272
1763205808107783700,11.22378369140625,0.15180018544197083,0.14221280813217163,-0.09853696078062057
1763205808123744300,11.239744140625,0.17949706315994263,0.16777914762496948,-0.03515372797846794
1763205808139674000,11.255674072265625,0.21571604907512665,0.2647182047367096,0.030360037460923195
1763205808155634400,11.271634521484375,0.25779399275779724,0.3659183382987976,0.06285060197114944
1763205808171564300,11.287564208984374,0.3051982522010803,0.4298342168331146,0.061785340309143066
1763205808187524900,11.30352490234375,0.3563309609889984,0.4074636399745941,0.09693906456232071
1763205808203485200,11.319485107421874,0.3840278387069702,0.3717772960662842,0.13582122325897217
1763205808219415000,11.3354150390625,0.39574575424194336,0.2604571580886841,0.12836436927318573
1763205808235375600,11.351375732421875,0.3936152160167694,0.18216022849082947,0.07669904083013535
1763205808251305500,11.367305419921875,0.35952675342559814,0.2039981484413147,0.009054748341441154
1763205808267265800,11.383265869140626,0.30466562509536743,0.31265512108802795,-0.07350324839353561
1763205808283196000,11.39919580078125,0.2737729549407959,0.40160471200942993,-0.1528654545545578
1763205808299156200,11.41515625,0.29028457403182983,0.42930158972740173,-0.16032229363918304
1763205808315086000,11.431086181640625,0.3467435836791992,0.3712446689605713,-0.12889699637889862
1763205808331016200,11.44701611328125,0.39574575424194336,0.29987195134162903,-0.0878843143582344
1763205808346976500,11.4629765625,0.4122573435306549,0.2641855776309967,-0.034088462591171265
1763205808362936800,11.478936767578125,0.4308994710445404,0.287621408700943,0.03195793181657791
1763205808378867000,11.494866943359375,0.436758428812027,0.3856257200241089,0.08042746782302856
1763205808394827300,11.5108271484375,0.4692489802837372,0.4767058491706848,0.13528858125209808
1763205808410757000,11.526757080078125,0.5123922228813171,0.45167213678359985,0.18482337892055511
1763205808426717700,11.5427177734375,0.5395564436912537,0.3371562063694,0.20932446420192719
1763205808442647600,11.5586474609375,0.5246427655220032,0.24021713435649872,0.15978966653347015
1763205808458607900,11.57460791015625,0.4783037304878235,0.16937704384326935,0.0697748214006424
1763205808474537700,11.590537841796875,0.44794371724128723,0.16618125140666962,-0.01438106968998909
1763205808490498300,11.606498291015624,0.46978163719177246,0.19813919067382812,-0.024501081556081772
1763205808506428200,11.62242822265625,0.4399542212486267,0.18216022849082947,-0.007989482954144478
1763205808522388500,11.638388427734375,0.3845604658126831,0.1113201379776001,-0.0649811327457428
1763205808538318600,11.654318603515625,0.3627225458621979,0.18322548270225525,-0.21092236042022705
1763205808554279000,11.67027880859375,0.33182987570762634,0.29028457403182983,-0.3755057156085968
1763205808570208800,11.686208740234376,0.25726136565208435,0.2269013226032257,-0.5001416802406311
1763205808586169300,11.70216943359375,0.24714136123657227,0.08894958347082138,-0.4676510989665985
1763205808602099200,11.71809912109375,0.30892670154571533,0.09001484513282776,-0.31318774819374084
1763205808618059500,11.7340595703125,0.4079962968826294,0.2785666584968567,-0.1709749400615692
1763205808634020000,11.75002001953125,0.5235774517059326,0.5523396134376526,-0.02503371424973011
1763205808649980400,11.76598046875,0.5858954787254333,0.5550028085708618,0.08575379103422165
1763205808665940700,11.781940673828124,0.6279733777046204,0.22477079927921295,0.125168576836586
1763205808681931800,11.797931884765624,0.6759102940559387,-0.15499597787857056,0.09800432622432709
1763205808697892400,11.813892333984375,0.6950850486755371,-0.32224249839782715,0.006391586735844612
1763205808713852700,11.829852783203124,0.6977482438087463,-0.24021713435649872,-0.08202536404132843
1763205808729782500,11.845782470703124,0.6471481323242188,-0.15020228922367096,-0.1432780623435974
1763205808745743000,11.8617431640625,0.5299690961837769,-0.1113201379776001,-0.1720402091741562
1763205808761673000,11.8776728515625,0.3930825889110565,-0.07297061383724213,-0.1805623322725296
1763205808777633300,11.89363330078125,0.3371562063694,0.08948221802711487,-0.1342233270406723
1763205808793563100,11.909563232421876,0.36911413073539734,0.2785666584968567,-0.05965480953454971
1763205808809523700,11.925523681640625,0.4575310945510864,0.3760383427143097,0.01757686398923397
1763205808825484000,11.941484130859376,0.5411543250083923,0.3467435836791992,0.09214537590742111
1763205808841444600,11.957444580078125,0.5576659440994263,0.260989785194397,0.12889699637889862
1763205808857374500,11.97337451171875,0.5273059010505676,0.16511599719524384,0.10705907642841339
1763205808873334800,11.989334716796876,0.5113269090652466,0.0788295716047287,0.05326322466135025
1763205808889264600,12.0052646484375,0.5443501472473145,-0.03675162419676781,-0.002130528911948204
1763205808905225200,12.02122509765625,0.5667206645011902,-0.1390170156955719,-0.06551376730203629
1763205808921185500,12.037185546875,0.5395564436912537,-0.1667138934135437,-0.14168016612529755
1763205808937115400,12.053115478515625,0.4783037304878235,-0.12410330772399902,-0.21571604907512665
1763205808953076000,12.069075927734374,0.40639838576316833,-0.05699164792895317,-0.25779399275779724
1763205808969036300,12.085036376953125,0.3653857111930847,0.012250540778040886,-0.22477079927921295
1763205808984996900,12.100996826171874,0.38242992758750916,-0.0324905663728714,-0.1438107043504715
1763205809000987600,12.116987548828124,0.43249738216400146,-0.06285060197114944,-0.03568635880947113
1763205809016948200,12.1329482421875,0.4687163531780243,0.02556634694337845,0.06125270575284958
1763205809032908500,12.148908447265624,0.4809668958187103,0.12090751528739929,0.13528858125209808
1763205809048869000,12.164869140625,0.4356931746006012,0.04687163606286049,0.18375812470912933
1763205809064829400,12.180829345703126,0.38242992758750916,-0.04740426689386368,0.21624869108200073
1763205809080789800,12.196789794921875,0.35473304986953735,-0.04527373984456062,0.21944448351860046
1763205809096720000,12.212719970703125,0.33609092235565186,-0.013315806165337563,0.17843179404735565
1763205809112680200,12.22868017578125,0.3376888334751129,0.006391586735844612,0.16618125140666962
1763205809128640500,12.244640625,0.3376888334751129,-0.002130528911948204,0.1805623322725296
1763205809144570600,12.260570556640625,0.3142530024051666,-0.07137271761894226,0.18642127513885498
1763205809160531000,12.276531005859376,0.29454562067985535,-0.2045307755470276,0.11717908829450607
1763205809176460800,12.292460693359375,0.2178465873003006,-0.28602349758148193,-0.07297061383724213
1763205809192390700,12.308390625,0.15872439742088318,-0.24820661544799805,-0.2908172011375427
1763205809208351200,12.324351318359374,0.17044231295585632,-0.1906823366880417,-0.43729105591773987
1763205809224281000,12.340281005859374,0.18642127513885498,-0.2322276532649994,-0.5161206126213074
1763205809240241400,12.356241455078125,0.2034655064344406,-0.29933932423591614,-0.47883638739585876
1763205809256171500,12.372171630859375,0.23009711503982544,-0.19387812912464142,-0.2822950780391693
1763205809272131800,12.3881318359375,0.2641855776309967,0.11504855751991272,0.02876213937997818
1763205809288061700,12.404061767578124,0.28549087047576904,0.40160471200942993,0.3195793330669403
1763205809304022300,12.420022216796875,0.28549087047576904,0.45646581053733826,0.4692489802837372
1763205809319952100,12.4359521484375,0.27164244651794434,0.3802994191646576,0.5022721886634827
1763205809335912400,12.451912353515626,0.2135855257511139,0.22530342638492584,0.4506068527698517
1763205809351842300,12.46784228515625,0.11771172285079956,0.09640643000602722,0.29987195134162903
1763205809367803000,12.483802978515625,0.027696875855326653,0.11345066130161285,0.14168016612529755
1763205809383732700,12.499732666015625,-0.003728425595909357,0.2034655064344406,0.016511598601937294
1763205809399662600,12.51566259765625,0.009054748341441154,0.22104237973690033,-0.023435818031430244
1763205809415623200,12.531623046875,0.003195793367922306,0.18801917135715485,0.001065264455974102
1763205809431553000,12.547552978515625,-0.001597896683961153,0.18429075181484222,0.037816889584064484
1763205809447513300,12.563513427734375,0.030892670154571533,0.24767398834228516,0.06551376730203629
1763205809463443500,12.579443359375,0.08522115647792816,0.28016453981399536,0.03621899336576462
1763205809479403800,12.59540380859375,0.14647386968135834,0.26152241230010986,-0.030360037460923195
1763205809495333600,12.611333740234375,0.18855181336402893,0.23276028037071228,-0.07776430249214172
1763205809511294200,12.627294189453124,0.22530342638492584,0.15446335077285767,-0.10599381476640701
1763205809527254500,12.643254638671875,0.24234765768051147,0.07190535217523575,-0.11291803419589996
1763205809543184400,12.659184326171875,0.23861923813819885,0.030892670154571533,-0.19281286001205444
1763205809559145000,12.67514501953125,0.24394555389881134,0.034088462591171265,-0.31372037529945374
1763205809575074800,12.69107470703125,0.23062975704669952,0.12303804606199265,-0.36964675784111023
1763205809591035100,12.70703515625,0.21624869108200073,0.17523600161075592,-0.3520699143409729
1763205809606995700,12.72299560546875,0.23489081859588623,0.18375812470912933,-0.3206445872783661
1763205809622956000,12.7389560546875,0.2966761589050293,0.17257283627986908,-0.287621408700943
1763205809638916400,12.754916259765626,0.3701793849468231,0.18429075181484222,-0.23009711503982544
1763205809654877000,12.770876953125,0.41065946221351624,0.250337153673172,-0.13315805792808533
1763205809670806800,12.786806884765625,0.4447479248046875,0.35899412631988525,-0.019707392901182175
1763205809686767000,12.80276708984375,0.4820321798324585,0.43782368302345276,0.05006742849946022
1763205809702697200,12.818697265625,0.5347627401351929,0.4298342168331146,0.0974716991186142
1763205809718657500,12.834657470703124,0.5635249018669128,0.34567832946777344,0.12410330772399902
1763205809734617900,12.850617919921875,0.5608617067337036,0.3190467059612274,0.1571265012025833
1763205809750578400,12.866578369140624,0.5326322317123413,0.34514567255973816,0.2087918370962143
1763205809766508300,12.88250830078125,0.4783037304878235,0.3435477912425995,0.23062975704669952
1763205809782468600,12.898468505859375,0.43835631012916565,0.3051982522010803,0.2039981484413147
1763205809798429200,12.91442919921875,0.4399542212486267,0.22530342638492584,0.14221280813217163
1763205809814389500,12.930389404296875,0.43409526348114014,0.07829693704843521,0.034621093422174454
1763205809830350000,12.94635009765625,0.3664509654045105,-0.03994741663336754,-0.11717908829450607
1763205809846280000,12.962280029296876,0.25672873854637146,-0.003195793367922306,-0.2817624509334564
1763205809862209800,12.978209716796876,0.18429075181484222,0.10546118021011353,-0.41918155550956726
1763205809878170400,12.99417041015625,0.19600865244865417,0.13528858125209808,-0.4857605993747711
1763205809894130700,13.010130615234376,0.23329292237758636,0.054861120879650116,-0.43356263637542725
1763205809910060500,13.026060546875,0.2695119082927704,0.027164243161678314,-0.33182987570762634
1763205809926021000,13.042021240234375,0.34461304545402527,0.18801917135715485,-0.2045307755470276
1763205809941951000,13.057950927734375,0.44634580612182617,0.5017395615577698,-0.03142530098557472
1763205809957911300,13.073911376953125,0.5012069344520569,0.6151902079582214,0.1443433314561844
1763205809973841200,13.089841064453125,0.521979570388794,0.3020024597644806,0.23915186524391174
1763205809989832200,13.105832275390625,0.5012069344520569,-0.07989483326673508,0.237021341919899
1763205810005792500,13.12179248046875,0.4271710515022278,-0.29454562067985535,0.0974716991186142
1763205810021722600,13.13772265625,0.40160471200942993,-0.28442561626434326,-0.04740426689386368
1763205810037683000,13.153682861328125,0.3568635880947113,-0.24501082301139832,-0.15925703942775726
1763205810053643300,13.169643310546874,0.27643612027168274,-0.2972087860107422,-0.22370553016662598
1763205810069603800,13.185603759765625,0.10386328399181366,-0.44208475947380066,-0.23915186524391174
1763205810085533700,13.20153369140625,-0.06657902896404266,-0.4175836741924286,-0.18429075181484222
1763205810101494000,13.217493896484376,-0.1757686287164688,-0.21891184151172638,-0.07669904083013535
1763205810117424000,13.233424072265626,-0.1992044597864151,-0.003728425595909357,0.06604639440774918
1763205810133354000,13.24935400390625,-0.14647386968135834,0.20612867176532745,0.18269285559654236
1763205810149344800,13.2653447265625,-0.027696875855326653,0.27963191270828247,0.15606124699115753
1763205810165305300,13.281305419921875,0.04953479766845703,0.2631203234195709,0.1528654545545578
1763205810181265700,13.297265625,0.049002163112163544,0.18801917135715485,0.20186761021614075
1763205810197226200,13.313226318359375,0.01810949668288231,0.09587380290031433,0.20293287932872772
1763205810213217000,13.329217041015625,0.002130528911948204,0.03994741663336754,0.1443433314561844
1763205810229177600,13.345177490234375,0.01065264455974102,0.02130528911948204,0.06125270575284958
1763205810245107500,13.361107421875,0.03675162419676781,-0.02503371424973011,0.02130528911948204
1763205810261067800,13.37706787109375,0.05273059010505676,-0.02876213937997818,0.030892670154571533
1763205810276998000,13.392997802734374,0.049002163112163544,-0.04527373984456062,0.06711166352033615
1763205810292958200,13.408958251953125,0.03515372797846794,-0.07723167538642883,0.07563377916812897
1763205810308918500,13.42491845703125,0.037284255027770996,-0.13156016170978546,0.04580637067556381
1763205810324879000,13.440879150390625,0.06285060197114944,-0.1571265012025833,0.034621093422174454
1763205810340839400,13.45683935546875,0.10333064943552017,-0.13741911947727203,0.10492854565382004
1763205810356769300,13.472769287109376,0.125168576836586,-0.11717908829450607,0.1853560209274292
1763205810372729900,13.488729736328125,0.15446335077285767,-0.1533980816602707,0.20985709130764008
1763205810388690200,13.504690185546876,0.2135855257511139,-0.1480717658996582,0.22530342638492584
1763205810404620000,13.5206201171875,0.23382554948329926,-0.15552860498428345,0.19228023290634155
1763205810420580600,13.53658056640625,0.21518342196941376,-0.2412824034690857,0.11558119207620621
1763205810436541000,13.552541015625,0.20240025222301483,-0.3062635362148285,0.037284255027770996
1763205810452501500,13.56850146484375,0.23009711503982544,-0.2460760921239853,0.01065264455974102
1763205810468492300,13.5844921875,0.24181503057479858,-0.19121496379375458,0.04580637067556381
1763205810484452900,13.600452880859375,0.20985709130764008,-0.29507824778556824,0.06657902896404266
1763205810500382700,13.6163828125,0.18162758648395538,-0.4032025933265686,-0.020240023732185364
1763205810516343000,13.632343017578124,0.16032229363918304,-0.44315001368522644,-0.18269285559654236
1763205810532303600,13.6483037109375,0.10599381476640701,-0.525708019733429,-0.4218447208404541
1763205810548294400,13.66429443359375,0.014913702383637428,-0.5358279943466187,-0.5731122493743896
1763205810564255000,13.6802548828125,-0.08309062570333481,-0.30839407444000244,-0.537958562374115
1763205810580215300,13.69621533203125,-0.08149272948503494,0.010120011866092682,-0.3195793330669403
1763205810596145200,13.712145263671875,0.013315806165337563,0.18748654425144196,-0.04367584362626076
1763205810612105700,13.728105712890626,0.12729910016059875,0.13741911947727203,0.1528654545545578
1763205810628035600,13.74403564453125,0.19547602534294128,-0.007456851191818714,0.1949433982372284
1763205810643996000,13.759995849609375,0.1944107562303543,-0.11877698451280594,0.13795174658298492
1763205810659956500,13.77595654296875,0.13156016170978546,-0.1672465205192566,0.05805691331624985
1763205810675916800,13.791916748046875,0.09214537590742111,-0.06711166352033615,-0.030360037460923195
1763205810691877400,13.80787744140625,0.12623383104801178,0.06764429062604904,-0.07723167538642883
1763205810707837700,13.823837646484375,0.13635385036468506,0.09853696078062057,-0.0511326938867569
1763205810723798000,13.839798095703125,0.1065264493227005,0.10279802232980728,0.05752427875995636
1763205810739789000,13.8557890625,0.07084008306264877,0.10333064943552017,0.15606124699115753
1763205810755719000,13.871718994140625,0.012783173471689224,0.1299622654914856,0.18855181336402893
1763205810771679500,13.887679443359374,-0.0601874403655529,0.09960222989320755,0.11664646118879318
1763205810787609300,13.903609375,-0.09161274135112762,0.07616640627384186,0.004261057823896408
1763205810803569700,13.919569580078125,-0.08628641813993454,0.07030745595693588,-0.061785340309143066
1763205810819499500,13.93549951171875,-0.05432848632335663,0.13688647747039795,-0.011185277253389359
1763205810835460000,13.951460205078124,-0.05006742849946022,0.2039981484413147,0.07297061383724213
1763205810851390000,13.967389892578124,-0.07030745595693588,0.21678131818771362,0.0740358829498291
1763205810867350500,13.9833505859375,-0.13262543082237244,0.20240025222301483,0.008522115647792816
1763205810883280400,13.9992802734375,-0.21411815285682678,0.20293287932872772,-0.06657902896404266
1763205810899240700,14.01524072265625,-0.2316950261592865,0.30892670154571533,-0.11717908829450607
1763205810915170600,14.031170654296876,-0.17949706315994263,0.37816888093948364,-0.125168576836586
1763205810931131100,14.047131103515625,-0.08948221802711487,0.37284255027770996,-0.06924218684434891
1763205810947091500,14.063091552734376,0.005858954507857561,0.3185140788555145,0.013848437927663326
1763205810963021300,14.079021240234376,0.07669904083013535,0.2631203234195709,0.11291803419589996
1763205810978982000,14.09498193359375,0.12197277694940567,0.32170987129211426,0.22903186082839966
1763205810994942200,14.110942138671875,0.18162758648395538,0.35952675342559814,0.28016453981399536
1763205811010872000,14.1268720703125,0.26205506920814514,0.39095205068588257,0.2929477393627167
1763205811026832600,14.14283251953125,0.30253511667251587,0.36005938053131104,0.2929477393627167
1763205811042762500,14.158762451171874,0.29507824778556824,0.2593919038772583,0.30892670154571533
1763205811058722800,14.174722900390625,0.2588592767715454,0.14487597346305847,0.3142530024051666
1763205811074653000,14.19065283203125,0.18642127513885498,0.07669904083013535,0.21678131818771362
1763205811090613200,14.20661328125,0.1113201379776001,0.022370554506778717,0.04953479766845703
1763205811106543000,14.222543212890624,0.04740426689386368,-0.01438106968998909,-0.15978966653347015
1763205811122473000,14.238472900390626,-0.007456851191818714,0.007456851191818714,-0.3611246645450592
1763205811138433500,14.25443359375,-0.059122178703546524,0.058589544147253036,-0.4964132308959961
1763205811154363400,14.27036328125,-0.04953479766845703,0.10812434554100037,-0.5097290277481079
1763205811170323700,14.28632373046875,-0.012250540778040886,0.21571604907512665,-0.41012680530548096
1763205811186284300,14.3022841796875,0.04314320906996727,0.38775625824928284,-0.24447819590568542
1763205811202214100,14.318214111328125,0.10386328399181366,0.5736449360847473,-0.058589544147253036
1763205811218174500,14.334174560546876,0.1304948925971985,0.6050702333450317,0.04367584362626076
1763205811234104600,14.3501044921875,0.17044231295585632,0.45273739099502563,0.07456851005554199
1763205811250065000,14.36606494140625,0.22050973773002625,0.21411815285682678,0.03568635880947113
1763205811265994800,14.381994873046875,0.26258769631385803,0.007456851191818714,-0.03888215124607086
1763205811281955300,14.397955322265625,0.3339604139328003,-0.0974716991186142,-0.07989483326673508
1763205811297885200,14.41388525390625,0.4026699662208557,-0.1257012039422989,-0.0649811327457428
1763205811313815000,14.42981494140625,0.3893541693687439,-0.1853560209274292,-0.06924218684434891
1763205811329775600,14.445775634765624,0.26152241230010986,-0.3067961633205414,-0.15499597787857056
1763205811345736000,14.46173583984375,0.10492854565382004,-0.36804887652397156,-0.30786141753196716
1763205811361665800,14.477665771484375,0.04367584362626076,-0.28069719672203064,-0.399474173784256
1763205811377626400,14.49362646484375,0.09640643000602722,-0.10599381476640701,-0.3440804183483124
1763205811393556200,14.50955615234375,0.2183792144060135,0.1390170156955719,-0.09853696078062057
1763205811409516500,14.5255166015625,0.3142530024051666,0.24873925745487213,0.15925703942775726
1763205811425446400,14.5414462890625,0.35420042276382446,0.19228023290634155,0.2924150824546814
1763205811441407000,14.557406982421876,0.33981937170028687,0.1390170156955719,0.28122982382774353
1763205811457367300,14.5733671875,0.27590349316596985,0.0878843143582344,0.15020228922367096
1763205811473297200,14.589297119140625,0.1906823366880417,0.037284255027770996,-0.05432848632335663
1763205811489257700,14.6052578125,0.1709749400615692,-0.047936901450157166,-0.2034655064344406
1763205811505218000,14.621218017578125,0.1896170675754547,-0.13262543082237244,-0.2082591950893402
1763205811521178600,14.6371787109375,0.2183792144060135,-0.20026971399784088,-0.09161274135112762
1763205811537139000,14.653138916015624,0.22104237973690033,-0.22636869549751282,0.02822950854897499
1763205811553099300,14.669099365234375,0.20559604465961456,-0.20666129887104034,0.06870955973863602
1763205811569059800,14.685059814453124,0.14753912389278412,-0.20932446420192719,-0.037816889584064484
1763205811584989700,14.70098974609375,0.09800432622432709,-0.1763012707233429,-0.15073491632938385
1763205811600950000,14.716949951171875,0.07456851005554199,-0.0974716991186142,-0.15233281254768372
1763205811616880000,14.732880126953125,0.07137271761894226,-0.13156016170978546,-0.029827404767274857
1763205811632840400,14.74884033203125,0.08894958347082138,-0.28122982382774353,0.13102753460407257
1763205811648770300,14.764770263671876,0.13741911947727203,-0.3579288721084595,0.26631611585617065
1763205811664731000,14.78073095703125,0.17044231295585632,-0.21518342196941376,0.32277512550354004
1763205811680660700,14.79666064453125,0.1581917703151703,-0.0649811327457428,0.2322276532649994
1763205811696621000,14.81262109375,0.1065264493227005,-0.0974716991186142,0.08042746782302856
1763205811712581600,14.82858154296875,0.0511326938867569,-0.23755396902561188,-0.05645901709794998
1763205811728511500,14.844511474609375,0.010120011866092682,-0.3376888334751129,-0.15925703942775726
1763205811744471800,14.860471923828126,-0.04314320906996727,-0.36751624941825867,-0.22849921882152557
1763205811760432400,14.876432373046875,-0.07563377916812897,-0.31798145174980164,-0.32117724418640137
1763205811776392700,14.892392822265625,-0.06604639440774918,-0.22370553016662598,-0.43303000926971436
1763205811792322600,14.908322509765625,-0.07723167538642883,-0.19387812912464142,-0.5486112236976624
1763205811808283100,14.924283203125,-0.07669904083013535,-0.1901497095823288,-0.5581985712051392
1763205811824213000,14.940212890625,-0.03302319720387459,-0.007989482954144478,-0.3840278387069702
1763205811840173300,14.95617333984375,0.06817692518234253,0.23062975704669952,-0.08575379103422165
1763205811856103400,14.972103515625,0.16032229363918304,0.23968450725078583,0.18322548270225525
1763205811872063700,14.988063720703124,0.2221076339483261,0.08628641813993454,0.3557983338832855
1763205811887993600,15.00399365234375,0.20293287932872772,-0.04527373984456062,0.4181163012981415
1763205811903923500,15.01992333984375,0.09800432622432709,-0.10865697264671326,0.3664509654045105
1763205811919884000,15.035884033203125,-0.03675162419676781,-0.06444849818944931,0.22477079927921295
1763205811935814000,15.05181396484375,-0.08415589481592178,-0.004261057823896408,0.07669904083013535
1763205811951774200,15.067774169921876,-0.05699164792895317,0.06817692518234253,-0.02822950854897499
1763205811967704300,15.083704345703126,-0.030360037460923195,0.11664646118879318,0.009587380103766918
1763205811983664600,15.09966455078125,-0.04740426689386368,0.14753912389278412,0.1294296383857727
1763205811999594500,15.115594482421875,-0.09054747968912125,0.17949706315994263,0.19867181777954102
1763205812015555000,15.13155517578125,-0.11398329585790634,0.21038973331451416,0.21465079486370087
1763205812031485000,15.14748486328125,-0.13635385036468506,0.23435817658901215,0.19547602534294128
1763205812047445200,15.1634453125,-0.125168576836586,0.1944107562303543,0.1432780623435974
1763205812063375000,15.179375,-0.08096009492874146,0.12676647305488586,0.10492854565382004
1763205812079335700,15.195335693359375,-0.026098979637026787,0.13528858125209808,0.12729910016059875
1763205812095265500,15.211265625,-0.01757686398923397,0.15872439742088318,0.16777914762496948
1763205812111226000,15.22722607421875,-0.04207794740796089,0.16351810097694397,0.18216022849082947
1763205812127186400,15.2431865234375,-0.0836232602596283,0.1763012707233429,0.17896443605422974
1763205812143146800,15.259146728515624,-0.15393070876598358,0.20080235600471497,0.13262543082237244
1763205812159076900,15.275076904296874,-0.21678131818771362,0.22956448793411255,0.037284255027770996
1763205812175067600,15.291067626953126,-0.21038973331451416,0.25353294610977173,-0.015446335077285767
1763205812191028200,15.3070283203125,-0.13795174658298492,0.22583606839179993,0.03888215124607086
1763205812206988500,15.322988525390626,-0.022903185337781906,0.22104237973690033,0.1257012039422989
1763205812222948900,15.338948974609375,0.055393751710653305,0.32330775260925293,0.1571265012025833
1763205812238879000,15.35487890625,0.062317971140146255,0.41385525465011597,0.17736652493476868
1763205812254839300,15.37083935546875,0.06125270575284958,0.3371562063694,0.22104237973690033
1763205812270799600,15.386799560546875,0.09693906456232071,0.1715075820684433,0.2599245309829712
1763205812286729700,15.402729736328125,0.13102753460407257,0.05699164792895317,0.24501082301139832
1763205812302690000,15.41868994140625,0.13102753460407257,-0.01810949668288231,0.12303804606199265
1763205812318650400,15.434650390625,0.125168576836586,-0.03888215124607086,-0.01065264455974102
1763205812334580500,15.45058056640625,0.10066749155521393,-0.009587380103766918,-0.1901497095823288
1763205812350540800,15.466540771484375,0.02876213937997818,0.037284255027770996,-0.2743056118488312
1763205812366470700,15.482470703125,-0.04740426689386368,0.10599381476640701,-0.27164244651794434
1763205812382431200,15.49843115234375,-0.05273059010505676,0.25832661986351013,-0.24660871922969818
1763205812398391600,15.5143916015625,-0.020772656425833702,0.36804887652397156,-0.2689792811870575
1763205812414321400,15.5303212890625,0.06604639440774918,0.3424825370311737,-0.33129724860191345
1763205812430282000,15.546281982421876,0.1709749400615692,0.28921929001808167,-0.3281014561653137
1763205812446211800,15.5622119140625,0.23808661103248596,0.260989785194397,-0.24660871922969818
1763205812462172200,15.578172119140625,0.31212249398231506,0.39521312713623047,-0.062317971140146255
1763205812478132700,15.5941328125,0.3930825889110565,0.39681100845336914,0.0974716991186142
1763205812494093000,15.610093017578125,0.4319647252559662,0.1347559541463852,0.16777914762496948
1763205812510023000,15.62602294921875,0.3717772960662842,-0.21518342196941376,0.0878843143582344
1763205812525983500,15.6419833984375,0.32756882905960083,-0.5326322317123413,-0.10013485699892044
1763205812541943800,15.65794384765625,0.3004045784473419,-0.6359629034996033,-0.2684466540813446
1763205812557873700,15.673873779296875,0.21891184151172638,-0.6189186573028564,-0.40533313155174255
1763205812573834200,15.689834228515625,0.12463594228029251,-0.4495415985584259,-0.4122573435306549
1763205812589764000,15.70576416015625,0.026098979637026787,-0.10439591854810715,-0.2695119082927704
1763205812605724400,15.721724365234374,0.02876213937997818,0.17044231295585632,-0.07030745595693588
1763205812621654500,15.737654541015624,0.10918960720300674,0.3472762107849121,0.08468852192163467
1763205812637614800,15.75361474609375,0.14540860056877136,0.3893541693687439,0.14221280813217163
1763205812653575200,15.7695751953125,0.13369068503379822,0.3579288721084595,0.12783172726631165
1763205812669535700,15.78553564453125,0.10013485699892044,0.21252025663852692,0.06072007492184639
1763205812685496000,15.80149609375,0.08415589481592178,0.0697748214006424,-0.041012682020664215
1763205812701426000,15.817426025390626,0.10918960720300674,-0.062317971140146255,-0.17044231295585632
1763205812717386500,15.833386474609375,0.13688647747039795,-0.1065264493227005,-0.24341292679309845
1763205812733346800,15.849346923828126,0.15925703942775726,-0.1576591432094574,-0.24288029968738556
1763205812749276700,15.865276611328126,0.15499597787857056,-0.24181503057479858,-0.19760656356811523
1763205812765237200,15.8812373046875,0.12410330772399902,-0.29827404022216797,-0.16884441673755646
1763205812781167000,15.8971669921875,0.0926780104637146,-0.33662357926368713,-0.20293287932872772
1763205812797097000,15.913096923828125,0.09108011424541473,-0.28602349758148193,-0.28016453981399536
1763205812813057500,15.9290576171875,0.11930961906909943,-0.21571604907512665,-0.3296993374824524
1763205812829017900,15.945017822265624,0.17523600161075592,-0.18269285559654236,-0.27164244651794434
1763205812844978400,15.960978515625,0.21678131818771362,-0.19547602534294128,-0.15073491632938385
1763205812860938800,15.976938720703124,0.2082591950893402,-0.20240025222301483,-0.003728425595909357
1763205812876899000,15.992899169921875,0.19600865244865417,-0.16564862430095673,0.1294296383857727
1763205812892859600,16.008859619140626,0.1992044597864151,-0.1347559541463852,0.19387812912464142
1763205812908820000,16.024820068359375,0.20612867176532745,-0.11717908829450607,0.213052898645401
1763205812924811000,16.04081103515625,0.19334550201892853,-0.10279802232980728,0.1757686287164688
1763205812940801800,16.0568017578125,0.1347559541463852,-0.14221280813217163,0.05432848632335663
1763205812956762400,16.072762451171876,0.10386328399181366,-0.18322548270225525,-0.009054748341441154
1763205812972722700,16.08872265625,0.10759171098470688,-0.15499597787857056,0.06338323652744293
1763205812988683300,16.104683349609374,0.10705907642841339,-0.09640643000602722,0.20186761021614075
1763205813004613000,16.120613037109376,0.08149272948503494,-0.23755396902561188,0.18162758648395538
1763205813020573400,16.136573486328125,0.07829693704843521,-0.35952675342559814,0.06391586363315582
1763205813036503300,16.15250341796875,0.03515372797846794,-0.347808837890625,-0.09534116834402084
1763205813052463900,16.1684638671875,-0.006391586735844612,-0.4458131790161133,-0.2775014042854309
1763205813068393700,16.184393798828125,-0.09960222989320755,-0.6535397171974182,-0.4953479766845703
1763205813084354000,16.20035400390625,-0.22583606839179993,-0.637028157711029,-0.6471481323242188
1763205813100284200,16.2162841796875,-0.27164244651794434,-0.24341292679309845,-0.5661880373954773
1763205813116244500,16.232244384765625,-0.18482337892055511,0.2785666584968567,-0.21624869108200073
1763205813132174300,16.24817431640625,0.016511598601937294,0.5741775631904602,0.21678131818771362
1763205813148135000,16.264135009765624,0.1720402091741562,0.4687163531780243,0.5049353241920471
1763205813164095200,16.28009521484375,0.22104237973690033,0.24873925745487213,0.5619270205497742
1763205813180055800,16.296055908203126,0.22849921882152557,0.08255799859762192,0.37390783429145813
1763205813196046600,16.312046630859374,0.2684466540813446,0.0788295716047287,0.1619201898574829
1763205813212007200,16.328007080078127,0.2508697807788849,0.1299622654914856,0.07723167538642883
1763205813227967500,16.343967529296876,0.20985709130764008,0.11398329585790634,0.13795174658298492
1763205813243927800,16.359927734375,0.14594122767448425,0.07243798673152924,0.21678131818771362
1763205813259858000,16.37585791015625,0.09693906456232071,0.03568635880947113,0.23542344570159912
1763205813275818200,16.391818359375,0.04953479766845703,-0.012783173471689224,0.1715075820684433
1763205813291778600,16.407778564453125,-0.012783173471689224,-0.030360037460923195,0.06764429062604904
1763205813307739100,16.4237392578125,-0.07350324839353561,0.06604639440774918,-0.016511598601937294
1763205813323669000,16.4396689453125,-0.1065264493227005,0.1853560209274292,-0.06125270575284958
1763205813339629300,16.45562939453125,-0.08468852192163467,0.2226402759552002,-0.06072007492184639
1763205813355559400,16.471559326171874,-0.04048004746437073,0.18429075181484222,-0.017044231295585632
1763205813371519700,16.487519775390624,-0.04207794740796089,0.16138756275177002,0.06657902896404266
1763205813387449600,16.50344970703125,-0.0740358829498291,0.2178465873003006,0.10705907642841339
1763205813403410200,16.51941015625,-0.1022653877735138,0.32650354504585266,0.037816889584064484
1763205813419340000,16.535340087890624,-0.09587380290031433,0.40107205510139465,-0.08042746782302856
1763205813435300400,16.55130029296875,-0.04953479766845703,0.38615837693214417,-0.15446335077285767
1763205813451230200,16.567230224609375,-0.011717909015715122,0.3376888334751129,-0.1390170156955719
1763205813467190800,16.583190673828124,0.022370554506778717,0.30839407444000244,-0.09108011424541473
1763205813483120600,16.59912060546875,0.07776430249214172,0.29933932423591614,-0.03568635880947113
1763205813499111700,16.615111572265626,0.1432780623435974,0.3376888334751129,0.07456851005554199
1763205813515072000,16.631072021484375,0.19387812912464142,0.40107205510139465,0.1853560209274292
1763205813531032600,16.647032470703124,0.22796659171581268,0.36378780007362366,0.199737086892128
1763205813546993000,16.662992919921876,0.22104237973690033,0.2556634545326233,0.12676647305488586
1763205813562922800,16.6789228515625,0.16831178963184357,0.11504855751991272,0.08628641813993454
1763205813578883300,16.69488330078125,0.10972224175930023,-0.04048004746437073,0.06870955973863602
1763205813594843600,16.71084375,0.08309062570333481,-0.07297061383724213,-0.023968450725078583
1763205813610773500,16.7267734375,0.08575379103422165,-0.02822950854897499,-0.1581917703151703
1763205813626734000,16.742734130859375,0.01810949668288231,0.047936901450157166,-0.2556634545326233
1763205813642664000,16.758663818359373,-0.07243798673152924,0.13635385036468506,-0.2828277051448822
1763205813658593800,16.77459375,-0.08948221802711487,0.21252025663852692,-0.26738137006759644
1763205813674554000,16.79055419921875,-0.07243798673152924,0.14594122767448425,-0.2551308274269104
1763205813690514700,16.8065146484375,-0.044741109013557434,0.037816889584064484,-0.26631611585617065
1763205813706444500,16.822444580078123,0.015978965908288956,0.10492854565382004,-0.2034655064344406
1763205813722435600,16.838435546875,0.09800432622432709,0.36858150362968445,-0.048469532281160355
1763205813738396000,16.85439599609375,0.1667138934135437,0.5651227831840515,0.07563377916812897
1763205813754356200,16.870356201171877,0.20133498311042786,0.3888215124607086,0.15126755833625793
1763205813770286300,16.886286376953127,0.24820661544799805,0.02183792181313038,0.15180018544197083
1763205813786246700,16.90224658203125,0.31212249398231506,-0.3563309609889984,0.01065264455974102
1763205813802176500,16.918176513671874,0.37337517738342285,-0.459661602973938,-0.18162758648395538
1763205813818137000,16.93413720703125,0.35846149921417236,-0.3195793330669403,-0.2913498282432556
1763205813834067000,16.95006689453125,0.287621408700943,-0.17949706315994263,-0.24181503057479858
1763205813850027300,16.96602734375,0.20559604465961456,-0.09906959533691406,-0.12836436927318573
1763205813865987800,16.98198779296875,0.17310547828674316,-0.020772656425833702,0.015978965908288956
1763205813881948200,16.9979482421875,0.20240025222301483,0.12463594228029251,0.1294296383857727
1763205813897908700,17.01390869140625,0.24341292679309845,0.32756882905960083,0.17523600161075592
1763205813913869000,17.029869140625,0.2455434501171112,0.40053942799568176,0.16831178963184357
1763205813929799000,17.045798828125,0.2045307755470276,0.3185140788555145,0.16937704384326935
1763205813945759500,17.061759521484376,0.15393070876598358,0.19760656356811523,0.1944107562303543
1763205813961689300,17.077689453125,0.12729910016059875,0.027696875855326653,0.18801917135715485
1763205813977649700,17.093649658203127,0.12090751528739929,-0.07829693704843521,0.14221280813217163
1763205813993579500,17.10957958984375,0.1022653877735138,-0.07297061383724213,0.022370554506778717
1763205814009509600,17.125509521484375,0.06817692518234253,-0.012250540778040886,-0.11664646118879318
1763205814025470000,17.141469970703124,0.004793690051883459,0.003195793367922306,-0.1757686287164688
1763205814041399800,17.15739990234375,-0.018642127513885498,-0.09214537590742111,-0.12783172726631165
1763205814057360400,17.1733603515625,0.006924218963831663,-0.19600865244865417,0.009587380103766918
1763205814073290200,17.189290283203125,0.019707392901182175,-0.24181503057479858,0.09480853378772736
1763205814089250600,17.20525048828125,0.026631612330675125,-0.18801917135715485,0.08096009492874146
1763205814105211100,17.221211181640626,0.03621899336576462,-0.08948221802711487,0.027164243161678314
1763205814121202000,17.237201904296874,0.047936901450157166,-0.0324905663728714,0.02503371424973011
1763205814137162500,17.25316259765625,0.059122178703546524,-0.08948221802711487,0.09693906456232071
1763205814153092400,17.26909228515625,0.07243798673152924,-0.18908444046974182,0.15925703942775726
1763205814169052700,17.285052734375,0.0926780104637146,-0.28975194692611694,0.16937704384326935
1763205814185013200,17.30101318359375,0.10013485699892044,-0.2865561246871948,0.17896443605422974
1763205814200943000,17.316943115234373,0.08415589481592178,-0.237021341919899,0.12357068061828613
1763205814216903400,17.3329033203125,0.06285060197114944,-0.23755396902561188,0.02556634694337845
1763205814232864000,17.348864013671875,0.034088462591171265,-0.24288029968738556,-0.041012682020664215
1763205814248824300,17.36482421875,0.02503371424973011,-0.17363810539245605,-0.04687163606286049
1763205814264815400,17.3808154296875,-0.01065264455974102,-0.24021713435649872,-0.09853696078062057
1763205814280775700,17.396775634765625,-0.020240023732185364,-0.32277512550354004,-0.1757686287164688
1763205814296736300,17.412736328125,-0.004793690051883459,-0.3020024597644806,-0.24927188456058502
1763205814312666000,17.428666015625,0.019707392901182175,-0.2455434501171112,-0.3243730366230011
1763205814328626400,17.44462646484375,0.012250540778040886,-0.24873925745487213,-0.38669100403785706
1763205814344587000,17.4605869140625,-0.04527373984456062,-0.25300031900405884,-0.40053942799568176
1763205814360516900,17.476516845703124,-0.0974716991186142,-0.15659387409687042,-0.34514567255973816
1763205814376477200,17.492477294921876,-0.06125270575284958,0.09108011424541473,-0.17470337450504303
1763205814392407000,17.508406982421874,-0.012783173471689224,0.2695119082927704,0.04580637067556381
1763205814408367600,17.52436767578125,0.003728425595909357,0.17843179404735565,0.1896170675754547
1763205814424328000,17.540327880859376,0.013848437927663326,-0.001597896683961153,0.2034655064344406
1763205814440257800,17.5562578125,0.034088462591171265,-0.09427590668201447,0.16085493564605713
1763205814456218400,17.57221826171875,0.011185277253389359,-0.17789916694164276,0.06817692518234253
1763205814472178700,17.5881787109375,-0.002130528911948204,-0.16937704384326935,-0.051665324717760086
1763205814488139300,17.60413916015625,0.011717909015715122,-0.022903185337781906,-0.09374327212572098
1763205814504069000,17.620069091796875,0.011185277253389359,0.11345066130161285,-0.05379585549235344
1763205814520029400,17.636029541015624,0.001065264455974102,0.14966966211795807,0.06924218684434891
1763205814535959300,17.651959228515626,-0.02556634694337845,0.14487597346305847,0.21518342196941376
1763205814551919900,17.667919921875,-0.08042746782302856,0.16564862430095673,0.2556634545326233
1763205814567849700,17.683849609375,-0.13688647747039795,0.20186761021614075,0.19174760580062866
1763205814583810000,17.69981005859375,-0.15925703942775726,0.22903186082839966,0.10333064943552017
1763205814599740200,17.715740234375,-0.15180018544197083,0.22849921882152557,0.06657902896404266
1763205814615700500,17.731700439453125,-0.13741911947727203,0.14274543523788452,0.06764429062604904
1763205814631630300,17.74763037109375,-0.10812434554100037,0.026098979637026787,0.1395496428012848
1763205814647591000,17.7635908203125,-0.09108011424541473,0.03621899336576462,0.19867181777954102
1763205814663520800,17.779520751953125,-0.10705907642841339,0.12197277694940567,0.1581917703151703
1763205814679481000,17.795481201171874,-0.13741911947727203,0.21571604907512665,0.006391586735844612
1763205814695441700,17.811441650390623,-0.19121496379375458,0.23915186524391174,-0.14700649678707123
1763205814711371500,17.82737158203125,-0.23968450725078583,0.19387812912464142,-0.20293287932872772
1763205814727331800,17.843331787109374,-0.23542344570159912,0.16618125140666962,-0.14594122767448425
1763205814743262000,17.859261962890624,-0.16564862430095673,0.2034655064344406,-0.055393751710653305
1763205814759222300,17.87522216796875,-0.05379585549235344,0.28442561626434326,0.05645901709794998
1763205814775152000,17.891152099609375,0.03994741663336754,0.3749730885028839,0.12676647305488586
1763205814791112700,17.90711279296875,0.0974716991186142,0.40639838576316833,0.1858886480331421
1763205814807042600,17.92304248046875,0.11398329585790634,0.3020024597644806,0.24341292679309845
1763205814823003000,17.9390029296875,0.12144014984369278,0.14061491191387177,0.2961435317993164
1763205814838932700,17.9549326171875,0.10120012611150742,0.07297061383724213,0.28122982382774353
1763205814854893300,17.970893310546874,0.07989483326673508,0.02556634694337845,0.16831178963184357
1763205814870823200,17.9868232421875,0.05752427875995636,0.09906959533691406,-0.005858954507857561
1763205814886783500,18.002783447265625,0.015446335077285767,0.21411815285682678,-0.1763012707233429
1763205814902713600,18.018713623046875,-0.018642127513885498,0.1486043930053711,-0.3147856593132019
1763205814918674000,18.034673828125,-0.026098979637026787,0.058589544147253036,-0.39254996180534363
1763205814934603800,18.050603759765625,-0.007456851191818714,0.14221280813217163,-0.41065946221351624
1763205814950564400,18.066564453125,-0.003728425595909357,0.23116238415241241,-0.4681837260723114
1763205814966494200,18.082494140625,0.04048004746437073,0.2886866629123688,-0.5054680109024048
1763205814982454500,18.09845458984375,0.12463594228029251,0.34088462591171265,-0.4729774296283722
1763205814998384400,18.11438427734375,0.2135855257511139,0.4356931746006012,-0.3004045784473419
1763205815014314500,18.130314453125,0.3158509135246277,0.5017395615577698,-0.0836232602596283
1763205815030274800,18.14627490234375,0.3749730885028839,0.49747851490974426,0.08522115647792816
1763205815046204700,18.16220458984375,0.4085289239883423,0.2785666584968567,0.16618125140666962
1763205815062165200,18.178165283203125,0.4079962968826294,-0.034621093422174454,0.13315805792808533
1763205815078095000,18.19409521484375,0.3978762626647949,-0.2908172011375427,0.012783173471689224
1763205815094025000,18.21002490234375,0.40160471200942993,-0.3163835406303406,-0.07456851005554199
1763205815109985500,18.225985595703126,0.37284255027770996,-0.24873925745487213,-0.10972224175930023
1763205815125915400,18.241915283203124,0.28389298915863037,-0.31372037529945374,-0.12783172726631165
1763205815141875700,18.257875732421876,0.14966966211795807,-0.41598576307296753,-0.13315805792808533
1763205815157805600,18.2738056640625,0.048469532281160355,-0.32597091794013977,-0.09587380290031433
1763205815173766100,18.28976611328125,0.03621899336576462,-0.06604639440774918,-0.026631612330675125
1763205815189696000,18.305696044921874,0.09480853378772736,0.16831178963184357,0.05006742849946022
1763205815205656300,18.32165625,0.19121496379375458,0.24714136123657227,0.14008226990699768
1763205815221586400,18.33758642578125,0.29028457403182983,0.16298545897006989,0.19654129445552826
1763205815237516300,18.353516357421874,0.287621408700943,0.012250540778040886,0.16831178963184357
1763205815253476600,18.3694765625,0.21571604907512665,-0.10120012611150742,0.06817692518234253
1763205815269406500,18.385406494140625,0.11238539963960648,-0.1709749400615692,-0.09800432622432709
1763205815285367000,18.401366943359374,0.06764429062604904,-0.2221076339483261,-0.2556634545326233
1763205815301297000,18.417296875,0.07297061383724213,-0.24021713435649872,-0.3190467059612274
1763205815317257200,18.43325732421875,0.08096009492874146,-0.28975194692611694,-0.31744879484176636
1763205815333187300,18.449187255859375,0.09108011424541473,-0.35047200322151184,-0.2636529505252838
1763205815349147600,18.465147705078124,0.09534116834402084,-0.3653857111930847,-0.21145498752593994
1763205815365077500,18.481077392578126,0.09321063756942749,-0.2865561246871948,-0.21624869108200073
1763205815381038000,18.4970380859375,0.0788295716047287,-0.21038973331451416,-0.2588592767715454
1763205815396968000,18.512968017578125,0.09054747968912125,-0.13369068503379822,-0.2274339646100998
1763205815412928300,18.52892822265625,0.13262543082237244,-0.08415589481592178,-0.09800432622432709
1763205815428574700,18.54457470703125,0.1858886480331421,-0.13848437368869781,0.07563377916812897
1763205815444504600,18.560504638671876,0.213052898645401,-0.20186761021614075,0.16458335518836975
1763205815460465000,18.57646484375,0.2173139452934265,-0.20559604465961456,0.1581917703151703
1763205815476394800,18.592394775390623,0.18642127513885498,-0.1896170675754547,0.07243798673152924
1763205815492355300,18.608355224609376,0.16138756275177002,-0.21891184151172638,0
1763205815508285200,18.62428515625,0.12250541150569916,-0.29348036646842957,-0.0463390052318573
1763205815524245500,18.64024560546875,0.07989483326673508,-0.2743056118488312,-0.10812434554100037
1763205815540175600,18.656175537109377,0.0697748214006424,-0.11717908829450607,-0.19707392156124115
1763205815556136000,18.672135986328126,0.0601874403655529,-0.11185276508331299,-0.32703620195388794
1763205815572065800,18.688065673828124,0.08575379103422165,-0.25353294610977173,-0.38242992758750916
1763205815587995600,18.70399560546875,0.0884169489145279,-0.43356263637542725,-0.26684874296188354
1763205815603956200,18.719956298828127,0.029294772073626518,-0.5640575289726257,-0.1342233270406723
1763205815619886000,18.735885986328125,-0.03515372797846794,-0.6215817928314209,-0.11558119207620621
1763205815635846400,18.751846435546874,-0.11930961906909943,-0.41598576307296753,-0.19600865244865417
1763205815651776500,18.767776611328124,-0.15552860498428345,0.04261057823896408,-0.21624869108200073
1763205815667706400,18.783706298828125,-0.12623383104801178,0.4452805519104004,-0.12783172726631165
1763205815683666700,18.799666748046874,-0.06338323652744293,0.5310343503952026,0.017044231295585632
1763205815699596500,18.815596435546876,-0.02503371424973011,0.29987195134162903,0.21092236042022705
1763205815715557000,18.83155712890625,-0.029827404767274857,0.06924218684434891,0.33662357926368713
1763205815731487000,18.847487060546875,-0.02556634694337845,-0.007456851191818714,0.32650354504585266
1763205815747447300,18.863447265625,-0.012250540778040886,0.0697748214006424,0.2135855257511139
1763205815763377400,18.87937744140625,0.01065264455974102,0.1347559541463852,0.11451593041419983
1763205815779337700,18.895337646484375,0.023968450725078583,0.17949706315994263,0.14540860056877136
1763205815795267600,18.911267578125,0.027696875855326653,0.21571604907512665,0.25246766209602356
1763205815811197700,18.92719775390625,0.015978965908288956,0.2173139452934265,0.33609092235565186
1763205815827158000,18.943157958984376,-0.02876213937997818,0.22157500684261322,0.3483414649963379
1763205815843088000,18.959087890625,-0.11930961906909943,0.24341292679309845,0.30413299798965454
1763205815859048400,18.97504833984375,-0.18002969026565552,0.23489081859588623,0.22317290306091309
1763205815874978300,18.990978271484376,-0.17789916694164276,0.22956448793411255,0.1763012707233429
1763205815890938600,19.006938720703126,-0.14114753901958466,0.22423817217350006,0.18429075181484222
1763205815906868500,19.022868408203124,-0.11664646118879318,0.21891184151172638,0.2269013226032257
1763205815922829000,19.0388291015625,-0.12783172726631165,0.18002969026565552,0.23062975704669952
1763205815938759000,19.054759033203126,-0.16937704384326935,0.19547602534294128,0.11451593041419983
1763205815954688800,19.070688720703124,-0.19387812912464142,0.2865561246871948,-0.05326322466135025
1763205815970649300,19.0866494140625,-0.24927188456058502,0.34514567255973816,-0.1805623322725296
1763205815986579200,19.1025791015625,-0.3158509135246277,0.3334277868270874,-0.21518342196941376
1763205816002539500,19.11853955078125,-0.2865561246871948,0.3579288721084595,-0.13528858125209808
1763205816018469400,19.134469482421874,-0.17843179404735565,0.3882888853549957,-0.012250540778040886
1763205816034430000,19.150429931640623,-0.02822950854897499,0.3526025414466858,0.1203748807311058
1763205816050359800,19.16635986328125,0.08735168725252151,0.31744879484176636,0.1757686287164688
1763205816066320100,19.182320068359374,0.15606124699115753,0.3813646733760834,0.18002969026565552
1763205816082250200,19.198250244140624,0.20133498311042786,0.4069310128688812,0.199737086892128
1763205816098210600,19.21421044921875,0.27110978960990906,0.34035199880599976,0.2364887148141861
1763205816114140400,19.230140380859375,0.3653857111930847,0.24820661544799805,0.29454562067985535
1763205816130070300,19.2460703125,0.42024683952331543,0.11078750342130661,0.3648530840873718
1763205816146030800,19.26203076171875,0.4271710515022278,-0.09214537590742111,0.32756882905960083
1763205816161960700,19.277960693359375,0.3946804702281952,-0.0884169489145279,0.1853560209274292
1763205816177921000,19.293921142578125,0.32117724418640137,0.04687163606286049,0.003728425595909357
1763205816193851100,19.30985107421875,0.20133498311042786,-0.04953479766845703,-0.19760656356811523
1763205816209811500,19.3258115234375,0.10599381476640701,-0.18429075181484222,-0.3531351685523987
1763205816225741300,19.3417412109375,0.06711166352033615,-0.22370553016662598,-0.42450788617134094
1763205816241702000,19.357701904296874,0.08096009492874146,-0.16511599719524384,-0.33182987570762634
1763205816257631700,19.3736318359375,0.09640643000602722,-0.03834952041506767,-0.16564862430095673
1763205816273592000,19.389592041015625,0.11504855751991272,0.26684874296188354,-0.10546118021011353
1763205816289522200,19.405522216796875,0.19121496379375458,0.5789712071418762,-0.033555831760168076
1763205816305482500,19.421482421875,0.21571604907512665,0.7350324988365173,0.09960222989320755
1763205816321412400,19.437412353515626,0.23062975704669952,0.5992112755775452,0.22796659171581268
1763205816337342200,19.45334228515625,0.20240025222301483,0.213052898645401,0.24181503057479858
1763205816353302800,19.469302734375,0.2082591950893402,-0.15499597787857056,0.10599381476640701
1763205816369232600,19.485232666015627,0.26258769631385803,-0.27483823895454407,-0.06285060197114944
1763205816385193000,19.50119287109375,0.29348036646842957,-0.20026971399784088,-0.1810949593782425
1763205816401123000,19.517123046875,0.25619611144065857,-0.09534116834402084,-0.20133498311042786
1763205816417083400,19.53308349609375,0.16990968585014343,-0.1395496428012848,-0.18269285559654236
1763205816433013200,19.54901318359375,0.07510114461183548,-0.2886866629123688,-0.20772656798362732
1763205816448973800,19.564973876953125,0.04367584362626076,-0.26205506920814514,-0.2455434501171112
1763205816464903700,19.580903564453124,0.09108011424541473,-0.03515372797846794,-0.2631203234195709
1763205816480833500,19.59683349609375,0.2178465873003006,0.22370553016662598,-0.18269285559654236
1763205816496793900,19.6127939453125,0.3712446689605713,0.32597091794013977,0.004261057823896408
